File: inst/extdata/CV_Framework_version7_06.DTA
EXPLAIN
TAG	CV
TITLE	LABEL	Cyclic Voltammetry	Test &Identifier
DATE	LABEL	4/9/2019	Date
TIME	LABEL	11:45:02	Time
NOTES	NOTES	1	&Notes...

PSTAT	PSTAT	REF3000-34126	Potentiostat
VINIT	POTEN	-1,80000E+000	F	Initial &E (V)
VLIMIT1	POTEN	-1,80000E+000	F	Scan Limit &1 (V)
VLIMIT2	POTEN	0,00000E+000	F	Scan Limit &2 (V)
VFINAL	POTEN	-1,80000E+000	F	Final &E (V)
SCANRATE	QUANT	4,99999E+001	&Scan Rate (mV/s)
STEPSIZE	QUANT	1,00000E+000	St&ep Size (mV)
CYCLES	IQUANT	1	C&ycles (#)
IMODE	SELECTOR	0	I/E Range &Mode
IRANGE	QUANT	3,00000E-001	&Max Current (mA)
AREA	QUANT	1,00000E+000	Electrode &Area (cm^2)
ELECTRODETYPE	SELECTOR	0	Electrode Type
STRIPPING	TOGGLE	F	Used for Stripping
POLARITY	TOGGLE	F	Signal Polarity
CONDIT	TWOPARAM	F	1,50000E+001	0,00000E+000	Conditionin&g	Time(s)	E(V)
DELAY	TWOPARAM	F	3,00000E+001	0,00000E+000	Init. De&lay	Time(s)	Stab.(mV/s)
EQDELAY	QUANT	5,00000E+000	Equil. &Time (s)
IRCOMP	SELECTOR	0	IRCom&p
PFCOR	QUANT	5,00000E+001	PF Corr. (ohm)
SAMPLINGMODE	SELECTOR	1	Sampling &Mode
EOC	QUANT	0	Open Circuit (V)
PSTATMODEL	IQUANT	5	Pstat Model
PSTATSECTION	LABEL	REF3000-34126	Pstat Section
PSTATSERIALNO	LABEL	34126	Pstat Serial Number
CTRLMODE	IQUANT	1	Control Mode
ELECTROMETER	IQUANT	0	RE=0 or CS=1
IESTAB	IQUANT	2	I/E Stability
CASPEED	IQUANT	4	Control Amp Speed
CONVENTION	IQUANT	1	Current Convention
ICHRANGE	IQUANT	2	Ich Range
ICHRANGEMODE	TOGGLE	F	Ich Auto Range
ICHOFFSETENABLE	TOGGLE	F	Ich Offset Enable
ICHOFFSET	QUANT	0	Ich Offset (V)
ICHFILTER	IQUANT	2	Ich Filter
VCHRANGE	IQUANT	2	Vch Range
VCHRANGEMODE	TOGGLE	F	Vch Auto Range
VCHOFFSETENABLE	TOGGLE	F	Vch Offset Enable
VCHOFFSET	QUANT	0	Vch Offset (V)
VCHFILTER	IQUANT	2	Vch Filter
ACHRANGE	IQUANT	2	Ach Range
ACHOFFSETENABLE	TOGGLE	F	Ach Offset Enable
ACHOFFSET	QUANT	0	Ach Offset (V)
ACHFILTER	IQUANT	1	Ach Filter
IERANGELOWERLIMIT	IQUANT	2	I/E Range Lower Limit
IERANGEMODE	TOGGLE	T	I/E AutoRange
IERANGE	IQUANT	9	I/E Range
POSFEEDENABLE	TOGGLE	F	Positive Feedback IR Comp
POSFEEDRESISTANCE	QUANT	0	Positive Feedback Resistance (ohm)
ACHSELECT	IQUANT	0	Ach Select
SENSECABLEID	IQUANT	14	Sense Cable ID
PWRCABLEID	IQUANT	7	Power Cable ID
DCCALDATE	LABEL	5/15/2019	DC Calibration Date
ACCALDATE	LABEL	5/15/2019	AC Calibration Date
THERMOSELECT	IQUANT	1	Thermo Select
FRAMEWORKVERSION	QUANT	7,06	Framework Version
INSTRUMENTVERSION	LABEL	4.30	Instrument Version
COMPLIANCEVOLTAGE	IQUANT	0	Compliance Voltage
CURVE1	TABLE
	Pt	T	Vf	Im	Vu	Sig	Ach	IERange	Over	Temp
	#	s	V vs. Ref.	A	V	V	V	#	bits	deg C
	0	0,02	-1,79758E+000	-3,28491E-003	0,00000E+000	-1,80000E+000	1,91118E-004	9	....ih..i.a	-327,61
	8	0,18	-1,78995E+000	-3,62516E-003	0,00000E+000	-1,79200E+000	9,77849E-005	10	..........a	-327,61
	16	0,34	-1,78197E+000	-3,49882E-003	0,00000E+000	-1,78400E+000	1,61118E-004	10	..........a	-327,61
	24	0,5	-1,77396E+000	-3,37788E-003	0,00000E+000	-1,77600E+000	1,04452E-004	10	..........a	-327,61
	32	0,66	-1,76599E+000	-3,26192E-003	0,00000E+000	-1,76800E+000	1,14452E-004	10	..........a	-327,61
	40	0,82	-1,75800E+000	-3,14748E-003	0,00000E+000	-1,76000E+000	1,17785E-004	10	..........a	-327,61
	48	0,98	-1,74998E+000	-3,03131E-003	0,00000E+000	-1,75200E+000	1,36118E-004	10	..........a	-327,61
	56	1,14	-1,74199E+000	-2,91743E-003	0,00000E+000	-1,74400E+000	9,77849E-005	10	..........a	-327,61
	64	1,3	-1,73402E+000	-2,80946E-003	0,00000E+000	-1,73600E+000	1,07785E-004	10	..........a	-327,61
	72	1,46	-1,72600E+000	-2,70135E-003	0,00000E+000	-1,72800E+000	1,29452E-004	10	..........a	-327,61
	80	1,62	-1,71801E+000	-2,60471E-003	0,00000E+000	-1,72000E+000	1,04452E-004	10	..........a	-327,61
	88	1,78	-1,71004E+000	-2,50137E-003	0,00000E+000	-1,71200E+000	1,15285E-004	10	..........a	-327,61
	96	1,94	-1,70178E+000	-2,39496E-003	0,00000E+000	-1,70400E+000	1,85285E-004	9	..........a	-327,61
	104	2,1	-1,69378E+000	-2,30086E-003	0,00000E+000	-1,69600E+000	1,33618E-004	9	..........a	-327,61
	112	2,26	-1,68585E+000	-2,20780E-003	0,00000E+000	-1,68800E+000	1,08618E-004	9	..........a	-327,61
	120	2,42	-1,67786E+000	-2,11549E-003	0,00000E+000	-1,68000E+000	1,49452E-004	9	..........a	-327,61
	128	2,58	-1,66985E+000	-2,02280E-003	0,00000E+000	-1,67200E+000	9,61182E-005	9	..........a	-327,61
	136	2,74	-1,66189E+000	-1,93135E-003	0,00000E+000	-1,66400E+000	1,19452E-004	9	..........a	-327,61
	144	2,9	-1,65392E+000	-1,84163E-003	0,00000E+000	-1,65600E+000	1,49452E-004	9	..........a	-327,61
	152	3,06	-1,64590E+000	-1,76283E-003	0,00000E+000	-1,64800E+000	1,21118E-004	9	..........a	-327,61
	160	3,22	-1,63794E+000	-1,68406E-003	0,00000E+000	-1,64000E+000	1,51118E-004	9	..........a	-327,61
	168	3,38	-1,62995E+000	-1,60805E-003	0,00000E+000	-1,63200E+000	1,47785E-004	9	..........a	-327,61
	176	3,54	-1,62191E+000	-1,53101E-003	0,00000E+000	-1,62400E+000	1,33618E-004	9	..........a	-327,61
	184	3,7	-1,61395E+000	-1,45950E-003	0,00000E+000	-1,61600E+000	1,11952E-004	9	..........a	-327,61
	192	3,86	-1,60600E+000	-1,39093E-003	0,00000E+000	-1,60800E+000	1,02785E-004	9	..........a	-327,61
	200	4,02	-1,59797E+000	-1,32173E-003	0,00000E+000	-1,60000E+000	1,32785E-004	9	..........a	-327,61
	208	4,18	-1,58999E+000	-1,25664E-003	0,00000E+000	-1,59200E+000	1,06952E-004	9	..........a	-327,61
	216	4,34	-1,58205E+000	-1,19478E-003	0,00000E+000	-1,58400E+000	1,47785E-004	9	..........a	-327,61
	224	4,5	-1,57404E+000	-1,13619E-003	0,00000E+000	-1,57600E+000	1,46952E-004	9	..........a	-327,61
	232	4,66	-1,56606E+000	-1,08082E-003	0,00000E+000	-1,56800E+000	1,00285E-004	9	..........a	-327,61
	240	4,82	-1,55809E+000	-1,02484E-003	0,00000E+000	-1,56000E+000	8,44516E-005	9	..........a	-327,61
	248	4,98	-1,55009E+000	-9,74249E-004	0,00000E+000	-1,55200E+000	1,24452E-004	9	..........a	-327,61
	256	5,14	-1,54209E+000	-9,25110E-004	0,00000E+000	-1,54400E+000	1,14452E-004	9	..........a	-327,61
	264	5,3	-1,53411E+000	-8,75040E-004	0,00000E+000	-1,53600E+000	9,52849E-005	9	..........a	-327,61
	272	5,46	-1,52614E+000	-8,30732E-004	0,00000E+000	-1,52800E+000	1,02785E-004	9	..........a	-327,61
	280	5,62	-1,51812E+000	-7,86433E-004	0,00000E+000	-1,52000E+000	1,16118E-004	9	..........a	-327,61
	288	5,78	-1,51016E+000	-7,46755E-004	0,00000E+000	-1,51200E+000	8,27849E-005	9	..........a	-327,61
	296	5,94	-1,50217E+000	-7,12554E-004	0,00000E+000	-1,50400E+000	1,13618E-004	9	..........a	-327,61
	304	6,1	-1,49416E+000	-6,77646E-004	0,00000E+000	-1,49600E+000	1,14452E-004	9	..........a	-327,61
	312	6,26	-1,48618E+000	-6,40770E-004	0,00000E+000	-1,48800E+000	8,94516E-005	9	..........a	-327,61
	320	6,42	-1,47822E+000	-6,08727E-004	0,00000E+000	-1,48000E+000	1,12785E-004	9	..........a	-327,61
	328	6,58	-1,47020E+000	-5,82746E-004	0,00000E+000	-1,47200E+000	1,12785E-004	9	..........a	-327,61
	336	6,74	-1,46222E+000	-5,51624E-004	0,00000E+000	-1,46400E+000	9,44515E-005	9	..........a	-327,61
	344	6,9	-1,45424E+000	-5,27882E-004	0,00000E+000	-1,45600E+000	1,06118E-004	9	..........a	-327,61
	352	7,06	-1,44623E+000	-5,04961E-004	0,00000E+000	-1,44800E+000	1,51118E-004	9	..........a	-327,61
	360	7,22	-1,43825E+000	-4,83170E-004	0,00000E+000	-1,44000E+000	9,69516E-005	9	..........a	-327,61
	368	7,38	-1,43027E+000	-4,61879E-004	0,00000E+000	-1,43200E+000	1,01952E-004	9	..........a	-327,61
	376	7,54	-1,42226E+000	-4,41765E-004	0,00000E+000	-1,42400E+000	1,17785E-004	9	..........a	-327,61
	384	7,7	-1,41426E+000	-4,22712E-004	0,00000E+000	-1,41600E+000	8,94516E-005	9	..........a	-327,61
	392	7,86	-1,40627E+000	-4,05357E-004	0,00000E+000	-1,40800E+000	7,61182E-005	9	..........a	-327,61
	400	8,02	-1,39830E+000	-3,89235E-004	0,00000E+000	-1,40000E+000	1,18618E-004	9	..........a	-327,61
	408	8,18	-1,39027E+000	-3,72725E-004	0,00000E+000	-1,39200E+000	1,10285E-004	9	..........a	-327,61
	416	8,34	-1,38231E+000	-3,60326E-004	0,00000E+000	-1,38400E+000	1,06118E-004	9	..........a	-327,61
	424	8,5	-1,37433E+000	-3,46004E-004	0,00000E+000	-1,37600E+000	1,08618E-004	9	..........a	-327,61
	432	8,66	-1,36630E+000	-3,33805E-004	0,00000E+000	-1,36800E+000	1,11952E-004	9	..........a	-327,61
	440	8,82	-1,35832E+000	-3,21962E-004	0,00000E+000	-1,36000E+000	1,22785E-004	9	..........a	-327,61
	448	8,98	-1,35035E+000	-3,09889E-004	0,00000E+000	-1,35200E+000	1,17785E-004	9	..........a	-327,61
	456	9,14	-1,34234E+000	-2,98958E-004	0,00000E+000	-1,34400E+000	1,62785E-004	9	..........a	-327,61
	464	9,3	-1,33435E+000	-2,89347E-004	0,00000E+000	-1,33600E+000	1,15285E-004	9	..........a	-327,61
	472	9,46	-1,32637E+000	-2,79351E-004	0,00000E+000	-1,32800E+000	1,03618E-004	9	..........a	-327,61
	480	9,62	-1,31838E+000	-2,69999E-004	0,00000E+000	-1,32000E+000	1,61952E-004	9	..........a	-327,61
	488	9,78	-1,31037E+000	-2,60889E-004	0,00000E+000	-1,31200E+000	1,14452E-004	9	..........a	-327,61
	496	9,94	-1,30240E+000	-2,52057E-004	0,00000E+000	-1,30400E+000	1,06952E-004	9	..........a	-327,61
	504	10,1	-1,29441E+000	-2,43721E-004	0,00000E+000	-1,29600E+000	1,16118E-004	9	..........a	-327,61
	512	10,26	-1,28621E+000	-2,35180E-004	0,00000E+000	-1,28800E+000	9,86182E-005	8	..........a	-327,61
	520	10,42	-1,27825E+000	-2,27518E-004	0,00000E+000	-1,28000E+000	9,94516E-005	8	..........a	-327,61
	528	10,58	-1,27027E+000	-2,20139E-004	0,00000E+000	-1,27200E+000	1,12785E-004	8	..........a	-327,61
	536	10,74	-1,26225E+000	-2,12686E-004	0,00000E+000	-1,26400E+000	9,77849E-005	8	..........a	-327,61
	544	10,9	-1,25429E+000	-2,05511E-004	0,00000E+000	-1,25600E+000	8,86182E-005	8	..........a	-327,61
	552	11,06	-1,24633E+000	-1,99311E-004	0,00000E+000	-1,24800E+000	1,09452E-004	8	..........a	-327,61
	560	11,22	-1,23830E+000	-1,92330E-004	0,00000E+000	-1,24000E+000	1,20285E-004	8	..........a	-327,61
	568	11,38	-1,23032E+000	-1,85546E-004	0,00000E+000	-1,23200E+000	1,06118E-004	8	..........a	-327,61
	576	11,54	-1,22235E+000	-1,78510E-004	0,00000E+000	-1,22400E+000	1,19452E-004	8	..........a	-327,61
	584	11,7	-1,21433E+000	-1,71797E-004	0,00000E+000	-1,21600E+000	9,02849E-005	8	..........a	-327,61
	592	11,86	-1,20635E+000	-1,64974E-004	0,00000E+000	-1,20800E+000	9,02849E-005	8	..........a	-327,61
	600	12,02	-1,19837E+000	-1,58370E-004	0,00000E+000	-1,20000E+000	1,02785E-004	8	..........a	-327,61
	608	12,18	-1,19040E+000	-1,51687E-004	0,00000E+000	-1,19200E+000	1,21118E-004	8	..........a	-327,61
	616	12,34	-1,18241E+000	-1,45077E-004	0,00000E+000	-1,18400E+000	1,47785E-004	8	..........a	-327,61
	624	12,5	-1,17444E+000	-1,38380E-004	0,00000E+000	-1,17600E+000	1,01118E-004	8	..........a	-327,61
	632	12,66	-1,16646E+000	-1,31636E-004	0,00000E+000	-1,16800E+000	1,30285E-004	8	..........a	-327,61
	640	12,82	-1,15846E+000	-1,24718E-004	0,00000E+000	-1,16000E+000	1,15285E-004	8	..........a	-327,61
	648	12,98	-1,15049E+000	-1,17556E-004	0,00000E+000	-1,15200E+000	1,07785E-004	8	..........a	-327,61
	656	13,14	-1,14253E+000	-1,10191E-004	0,00000E+000	-1,14400E+000	1,07785E-004	8	..........a	-327,61
	664	13,3	-1,13450E+000	-1,02419E-004	0,00000E+000	-1,13600E+000	1,22785E-004	8	..........a	-327,61
	672	13,46	-1,12653E+000	-9,42270E-005	0,00000E+000	-1,12800E+000	1,12785E-004	8	..........a	-327,61
	680	13,62	-1,11856E+000	-8,55020E-005	0,00000E+000	-1,12000E+000	9,86182E-005	8	..........a	-327,61
	688	13,78	-1,11055E+000	-7,59672E-005	0,00000E+000	-1,11200E+000	1,67785E-004	8	..........a	-327,61
	696	13,94	-1,10257E+000	-6,54583E-005	0,00000E+000	-1,10400E+000	1,28618E-004	8	..........a	-327,61
	704	14,1	-1,09462E+000	-5,38643E-005	0,00000E+000	-1,09600E+000	1,36118E-004	8	..........a	-327,61
	712	14,26	-1,08663E+000	-4,08691E-005	0,00000E+000	-1,08800E+000	1,58618E-004	8	..........a	-327,61
	720	14,42	-1,07864E+000	-2,64476E-005	0,00000E+000	-1,08000E+000	1,29452E-004	8	..........a	-327,61
	728	14,58	-1,07056E+000	-1,05029E-005	0,00000E+000	-1,07200E+000	8,69515E-005	7	..........a	-327,61
	736	14,74	-1,06276E+000	5,08330E-006	0,00000E+000	-1,06400E+000	1,26952E-004	7	..........a	-327,61
	744	14,9	-1,05493E+000	2,04026E-005	0,00000E+000	-1,05600E+000	1,23618E-004	7	..........a	-327,61
	752	15,06	-1,04679E+000	3,58587E-005	0,00000E+000	-1,04800E+000	1,38618E-004	8	..........a	-327,61
	760	15,22	-1,03881E+000	4,87561E-005	0,00000E+000	-1,04000E+000	1,51952E-004	8	..........a	-327,61
	768	15,38	-1,03082E+000	5,95106E-005	0,00000E+000	-1,03200E+000	1,40285E-004	8	..........a	-327,61
	776	15,54	-1,02285E+000	6,78247E-005	0,00000E+000	-1,02400E+000	1,52785E-004	8	..........a	-327,61
	784	15,7	-1,01485E+000	7,40296E-005	0,00000E+000	-1,01600E+000	1,25285E-004	8	..........a	-327,61
	792	15,86	-1,00683E+000	7,87651E-005	0,00000E+000	-1,00800E+000	1,21952E-004	8	..........a	-327,61
	800	16,02	-9,98854E-001	8,17107E-005	0,00000E+000	-1,00000E+000	1,33618E-004	8	..........a	-327,61
	808	16,18	-9,90884E-001	8,28418E-005	0,00000E+000	-9,92000E-001	1,51118E-004	8	..........a	-327,61
	816	16,34	-9,82880E-001	8,18850E-005	0,00000E+000	-9,84000E-001	1,33618E-004	8	..........a	-327,61
	824	16,5	-9,74869E-001	7,88403E-005	0,00000E+000	-9,76000E-001	1,15285E-004	8	..........a	-327,61
	832	16,66	-9,66900E-001	7,40159E-005	0,00000E+000	-9,68000E-001	1,16952E-004	8	..........a	-327,61
	840	16,82	-9,58911E-001	6,81399E-005	0,00000E+000	-9,60000E-001	1,58618E-004	8	..........a	-327,61
	848	16,98	-9,50882E-001	6,22967E-005	0,00000E+000	-9,52000E-001	1,28618E-004	8	..........a	-327,61
	856	17,14	-9,42899E-001	5,74275E-005	0,00000E+000	-9,44000E-001	1,39452E-004	8	..........a	-327,61
	864	17,3	-9,34912E-001	5,40835E-005	0,00000E+000	-9,36000E-001	1,29452E-004	8	..........a	-327,61
	872	17,46	-9,26905E-001	5,22138E-005	0,00000E+000	-9,28000E-001	1,51952E-004	8	..........a	-327,61
	880	17,62	-9,18927E-001	5,12039E-005	0,00000E+000	-9,20000E-001	1,22785E-004	8	..........a	-327,61
	888	17,78	-9,10921E-001	5,06786E-005	0,00000E+000	-9,12000E-001	1,42785E-004	8	..........a	-327,61
	896	17,94	-9,02900E-001	5,03016E-005	0,00000E+000	-9,04000E-001	1,21118E-004	8	..........a	-327,61
	904	18,1	-8,94948E-001	5,01314E-005	0,00000E+000	-8,96000E-001	1,12785E-004	8	..........a	-327,61
	912	18,26	-8,86947E-001	5,01713E-005	0,00000E+000	-8,88000E-001	1,21952E-004	8	..........a	-327,61
	920	18,42	-8,78942E-001	5,04206E-005	0,00000E+000	-8,80000E-001	1,27785E-004	8	..........a	-327,61
	928	18,58	-8,70944E-001	5,08559E-005	0,00000E+000	-8,72000E-001	1,23618E-004	8	..........a	-327,61
	936	18,74	-8,62976E-001	5,15172E-005	0,00000E+000	-8,64000E-001	1,24452E-004	8	..........a	-327,61
	944	18,9	-8,54971E-001	5,23166E-005	0,00000E+000	-8,56000E-001	1,35285E-004	8	..........a	-327,61
	952	19,06	-8,46989E-001	5,32224E-005	0,00000E+000	-8,48000E-001	9,61182E-005	8	..........a	-327,61
	960	19,22	-8,39007E-001	5,42504E-005	0,00000E+000	-8,40000E-001	1,21952E-004	8	..........a	-327,61
	968	19,38	-8,31007E-001	5,53828E-005	0,00000E+000	-8,32000E-001	1,87785E-004	8	..........a	-327,61
	976	19,54	-8,23012E-001	5,65742E-005	0,00000E+000	-8,24000E-001	9,44515E-005	8	..........a	-327,61
	984	19,7	-8,14993E-001	5,77313E-005	0,00000E+000	-8,16000E-001	1,07785E-004	8	..........a	-327,61
	992	19,86	-8,07001E-001	5,88413E-005	0,00000E+000	-8,08000E-001	1,45285E-004	8	..........a	-327,61
	1000	20,02	-7,98989E-001	5,98545E-005	0,00000E+000	-8,00000E-001	1,09452E-004	8	..........a	-327,61
	1008	20,18	-7,91005E-001	6,06469E-005	0,00000E+000	-7,92000E-001	7,44516E-005	8	..........a	-327,61
	1016	20,34	-7,83016E-001	6,12253E-005	0,00000E+000	-7,84000E-001	1,06952E-004	8	..........a	-327,61
	1024	20,5	-7,75025E-001	6,14958E-005	0,00000E+000	-7,76000E-001	9,86182E-005	8	..........a	-327,61
	1032	20,66	-7,67057E-001	6,15592E-005	0,00000E+000	-7,68000E-001	9,77849E-005	8	..........a	-327,61
	1040	20,82	-7,59062E-001	6,13785E-005	0,00000E+000	-7,60000E-001	9,27849E-005	8	..........a	-327,61
	1048	20,98	-7,51052E-001	6,10842E-005	0,00000E+000	-7,52000E-001	8,69515E-005	8	..........a	-327,61
	1056	21,14	-7,43063E-001	6,06683E-005	0,00000E+000	-7,44000E-001	8,86182E-005	8	..........a	-327,61
	1064	21,3	-7,35091E-001	6,02225E-005	0,00000E+000	-7,36000E-001	1,05285E-004	8	..........a	-327,61
	1072	21,46	-7,27055E-001	5,97381E-005	0,00000E+000	-7,28000E-001	1,23618E-004	8	..........a	-327,61
	1080	21,62	-7,19067E-001	5,93417E-005	0,00000E+000	-7,20000E-001	9,36182E-005	8	..........a	-327,61
	1088	21,78	-7,11095E-001	5,88940E-005	0,00000E+000	-7,12000E-001	9,94516E-005	8	..........a	-327,61
	1096	21,94	-7,03083E-001	5,86071E-005	0,00000E+000	-7,04000E-001	1,54452E-004	8	..........a	-327,61
	1104	22,1	-6,95073E-001	5,83713E-005	0,00000E+000	-6,96000E-001	7,94516E-005	8	..........a	-327,61
	1112	22,26	-6,87111E-001	5,80573E-005	0,00000E+000	-6,88000E-001	9,19516E-005	8	..........a	-327,61
	1120	22,42	-6,79115E-001	5,78509E-005	0,00000E+000	-6,80000E-001	1,21952E-004	8	..........a	-327,61
	1128	22,58	-6,71103E-001	5,77332E-005	0,00000E+000	-6,72000E-001	1,05285E-004	8	..........a	-327,61
	1136	22,74	-6,63135E-001	5,76926E-005	0,00000E+000	-6,64000E-001	9,94516E-005	8	..........a	-327,61
	1144	22,9	-6,55133E-001	5,77717E-005	0,00000E+000	-6,56000E-001	1,07785E-004	8	..........a	-327,61
	1152	23,06	-6,47117E-001	5,79387E-005	0,00000E+000	-6,48000E-001	1,03618E-004	8	..........a	-327,61
	1160	23,22	-6,39148E-001	5,81376E-005	0,00000E+000	-6,40000E-001	1,00285E-004	8	..........a	-327,61
	1168	23,38	-6,31167E-001	5,83479E-005	0,00000E+000	-6,32000E-001	1,02785E-004	8	..........a	-327,61
	1176	23,54	-6,23148E-001	5,86404E-005	0,00000E+000	-6,24000E-001	1,10285E-004	8	..........a	-327,61
	1184	23,7	-6,15150E-001	5,89322E-005	0,00000E+000	-6,16000E-001	9,77849E-005	8	..........a	-327,61
	1192	23,86	-6,07169E-001	5,92125E-005	0,00000E+000	-6,08000E-001	9,94516E-005	8	..........a	-327,61
	1200	24,02	-5,99150E-001	5,96073E-005	0,00000E+000	-6,00000E-001	8,27849E-005	8	..........a	-327,61
	1208	24,18	-5,91158E-001	6,00912E-005	0,00000E+000	-5,92000E-001	9,19516E-005	8	..........a	-327,61
	1216	24,34	-5,83190E-001	6,05283E-005	0,00000E+000	-5,84000E-001	9,36182E-005	8	..........a	-327,61
	1224	24,5	-5,75188E-001	6,09751E-005	0,00000E+000	-5,76000E-001	1,61118E-004	8	..........a	-327,61
	1232	24,66	-5,67185E-001	6,14333E-005	0,00000E+000	-5,68000E-001	9,86182E-005	8	..........a	-327,61
	1240	24,82	-5,59225E-001	6,19025E-005	0,00000E+000	-5,60000E-001	9,86182E-005	8	..........a	-327,61
	1248	24,98	-5,51232E-001	6,25694E-005	0,00000E+000	-5,52000E-001	1,32785E-004	8	..........a	-327,61
	1256	25,14	-5,43220E-001	6,30134E-005	0,00000E+000	-5,44000E-001	1,06952E-004	8	..........a	-327,61
	1264	25,3	-5,35237E-001	6,34893E-005	0,00000E+000	-5,36000E-001	1,13618E-004	8	..........a	-327,61
	1272	25,46	-5,27244E-001	6,40952E-005	0,00000E+000	-5,28000E-001	1,06952E-004	8	..........a	-327,61
	1280	25,62	-5,19244E-001	6,46750E-005	0,00000E+000	-5,20000E-001	1,31952E-004	8	..........a	-327,61
	1288	25,78	-5,11283E-001	6,52135E-005	0,00000E+000	-5,12000E-001	1,15285E-004	8	..........a	-327,61
	1296	25,94	-5,03276E-001	6,56436E-005	0,00000E+000	-5,04000E-001	1,02785E-004	8	..........a	-327,61
	1304	26,1	-4,95251E-001	6,60612E-005	0,00000E+000	-4,96000E-001	1,08618E-004	8	..........a	-327,61
	1312	26,26	-4,87274E-001	6,65041E-005	0,00000E+000	-4,88000E-001	8,94516E-005	8	..........a	-327,61
	1320	26,42	-4,79299E-001	6,69406E-005	0,00000E+000	-4,80000E-001	1,02785E-004	8	..........a	-327,61
	1328	26,58	-4,71270E-001	6,73641E-005	0,00000E+000	-4,72000E-001	1,45285E-004	8	..........a	-327,61
	1336	26,74	-4,63272E-001	6,77429E-005	0,00000E+000	-4,64000E-001	1,02785E-004	8	..........a	-327,61
	1344	26,9	-4,55333E-001	6,82320E-005	0,00000E+000	-4,56000E-001	1,06952E-004	8	..........a	-327,61
	1352	27,06	-4,47318E-001	6,87267E-005	0,00000E+000	-4,48000E-001	1,49452E-004	8	..........a	-327,61
	1360	27,22	-4,39324E-001	6,91480E-005	0,00000E+000	-4,40000E-001	1,00285E-004	8	..........a	-327,61
	1368	27,38	-4,31345E-001	6,96006E-005	0,00000E+000	-4,32000E-001	9,19516E-005	8	..........a	-327,61
	1376	27,54	-4,23349E-001	7,01075E-005	0,00000E+000	-4,24000E-001	1,16118E-004	8	..........a	-327,61
	1384	27,7	-4,15353E-001	7,06089E-005	0,00000E+000	-4,16000E-001	1,13618E-004	8	..........a	-327,61
	1392	27,86	-4,07365E-001	7,11573E-005	0,00000E+000	-4,08000E-001	9,77849E-005	8	..........a	-327,61
	1400	28,02	-3,99375E-001	7,16928E-005	0,00000E+000	-4,00000E-001	1,06952E-004	8	..........a	-327,61
	1408	28,18	-3,91363E-001	7,23168E-005	0,00000E+000	-3,92000E-001	8,86182E-005	8	..........a	-327,61
	1416	28,34	-3,83383E-001	7,28837E-005	0,00000E+000	-3,84000E-001	8,69515E-005	8	..........a	-327,61
	1424	28,5	-3,75395E-001	7,36523E-005	0,00000E+000	-3,76000E-001	8,44516E-005	8	..........a	-327,61
	1432	28,66	-3,67377E-001	7,43086E-005	0,00000E+000	-3,68000E-001	9,11182E-005	8	..........a	-327,61
	1440	28,82	-3,59386E-001	7,50810E-005	0,00000E+000	-3,60000E-001	1,05285E-004	8	..........a	-327,61
	1448	28,98	-3,51430E-001	7,58711E-005	0,00000E+000	-3,52000E-001	8,44516E-005	8	..........a	-327,61
	1456	29,14	-3,43410E-001	7,66337E-005	0,00000E+000	-3,44000E-001	9,69516E-005	8	..........a	-327,61
	1464	29,3	-3,35422E-001	7,73759E-005	0,00000E+000	-3,36000E-001	7,52849E-005	8	..........a	-327,61
	1472	29,46	-3,27458E-001	7,81344E-005	0,00000E+000	-3,28000E-001	7,94516E-005	8	..........a	-327,61
	1480	29,62	-3,19450E-001	7,89521E-005	0,00000E+000	-3,20000E-001	1,46118E-004	8	..........a	-327,61
	1488	29,78	-3,11454E-001	7,98689E-005	0,00000E+000	-3,12000E-001	9,69516E-005	8	..........a	-327,61
	1496	29,94	-3,03471E-001	8,05935E-005	0,00000E+000	-3,04000E-001	9,44515E-005	8	..........a	-327,61
	1504	30,1	-2,95484E-001	8,13851E-005	0,00000E+000	-2,96000E-001	1,07785E-004	8	..........a	-327,61
	1512	30,26	-2,87470E-001	8,21921E-005	0,00000E+000	-2,88000E-001	9,69516E-005	8	..........a	-327,61
	1520	30,42	-2,79487E-001	8,30063E-005	0,00000E+000	-2,80000E-001	1,00285E-004	8	..........a	-327,61
	1528	30,58	-2,71499E-001	8,38211E-005	0,00000E+000	-2,72000E-001	9,36182E-005	8	..........a	-327,61
	1536	30,74	-2,63487E-001	8,47456E-005	0,00000E+000	-2,64000E-001	1,04452E-004	8	..........a	-327,61
	1544	30,9	-2,55532E-001	8,56729E-005	0,00000E+000	-2,56000E-001	1,16952E-004	8	..........a	-327,61
	1552	31,06	-2,47559E-001	8,65856E-005	0,00000E+000	-2,48000E-001	9,52849E-005	8	..........a	-327,61
	1560	31,22	-2,39520E-001	8,77592E-005	0,00000E+000	-2,40000E-001	1,26118E-004	8	..........a	-327,61
	1568	31,38	-2,31528E-001	8,89355E-005	0,00000E+000	-2,32000E-001	9,94516E-005	8	..........a	-327,61
	1576	31,54	-2,23575E-001	8,98716E-005	0,00000E+000	-2,24000E-001	1,25285E-004	8	..........a	-327,61
	1584	31,7	-2,15556E-001	9,11274E-005	0,00000E+000	-2,16000E-001	1,59452E-004	8	..........a	-327,61
	1592	31,86	-2,07565E-001	9,22899E-005	0,00000E+000	-2,08000E-001	1,03618E-004	8	..........a	-327,61
	1600	32,02	-1,99574E-001	9,36928E-005	0,00000E+000	-2,00000E-001	1,13618E-004	8	..........a	-327,61
	1608	32,18	-1,91566E-001	9,50448E-005	0,00000E+000	-1,92000E-001	1,35285E-004	8	..........a	-327,61
	1616	32,34	-1,83570E-001	9,65924E-005	0,00000E+000	-1,84000E-001	9,77849E-005	8	..........a	-327,61
	1624	32,5	-1,75589E-001	9,78793E-005	0,00000E+000	-1,76000E-001	1,09452E-004	8	..........a	-327,61
	1632	32,66	-1,67603E-001	9,92583E-005	0,00000E+000	-1,68000E-001	1,15285E-004	8	..........a	-327,61
	1640	32,82	-1,59602E-001	1,00656E-004	0,00000E+000	-1,60000E-001	9,86182E-005	8	..........a	-327,61
	1648	32,98	-1,51655E-001	1,02315E-004	0,00000E+000	-1,52000E-001	1,09452E-004	8	..........a	-327,61
	1656	33,14	-1,43649E-001	1,04167E-004	0,00000E+000	-1,44000E-001	1,30285E-004	8	..........a	-327,61
	1664	33,3	-1,35645E-001	1,05663E-004	0,00000E+000	-1,36000E-001	1,13618E-004	8	..........a	-327,61
	1672	33,46	-1,27684E-001	1,08629E-004	0,00000E+000	-1,28000E-001	1,19452E-004	8	..........a	-327,61
	1680	33,62	-1,19704E-001	1,10224E-004	0,00000E+000	-1,20000E-001	8,61182E-005	8	..........a	-327,61
	1688	33,78	-1,11673E-001	1,11705E-004	0,00000E+000	-1,12000E-001	1,23618E-004	8	..........a	-327,61
	1696	33,94	-1,03669E-001	1,13658E-004	0,00000E+000	-1,04000E-001	1,18618E-004	8	..........a	-327,61
	1704	34,1	-9,57142E-002	1,15162E-004	0,00000E+000	-9,60001E-002	9,69516E-005	8	..........a	-327,61
	1712	34,26	-8,77104E-002	1,16683E-004	0,00000E+000	-8,80001E-002	1,09452E-004	8	..........a	-327,61
	1720	34,42	-7,97279E-002	1,18552E-004	0,00000E+000	-8,00000E-002	1,11118E-004	8	..........a	-327,61
	1728	34,58	-7,17400E-002	1,20400E-004	0,00000E+000	-7,20001E-002	1,04452E-004	8	..........a	-327,61
	1736	34,74	-6,37604E-002	1,22311E-004	0,00000E+000	-6,40001E-002	1,14452E-004	8	..........a	-327,61
	1744	34,9	-5,57637E-002	1,24246E-004	0,00000E+000	-5,60001E-002	9,86182E-005	8	..........a	-327,61
	1752	35,06	-4,77821E-002	1,26242E-004	0,00000E+000	-4,80000E-002	1,09452E-004	8	..........a	-327,61
	1760	35,22	-3,98067E-002	1,28313E-004	0,00000E+000	-4,00001E-002	1,10285E-004	8	..........a	-327,61
	1768	35,38	-3,17962E-002	1,30455E-004	0,00000E+000	-3,20001E-002	9,94516E-005	8	..........a	-327,61
	1776	35,54	-2,38129E-002	1,32604E-004	0,00000E+000	-2,40000E-002	1,03618E-004	8	..........a	-327,61
	1784	35,7	-1,58175E-002	1,35001E-004	0,00000E+000	-1,60000E-002	8,52849E-005	8	..........a	-327,61
	1792	35,86	-7,82749E-003	1,36991E-004	0,00000E+000	-8,00008E-003	1,02785E-004	8	..........a	-327,61
	1800	36,02	1,67092E-004	1,39421E-004	0,00000E+000	-5,96046E-008	8,86182E-005	8	..........a	-327,61
	1808	36,18	-7,82249E-003	1,31887E-004	0,00000E+000	-8,00008E-003	1,02785E-004	8	..........a	-327,61
	1816	36,34	-1,58042E-002	1,26005E-004	0,00000E+000	-1,60000E-002	9,52849E-005	8	..........a	-327,61
	1824	36,5	-2,38050E-002	1,21376E-004	0,00000E+000	-2,40000E-002	1,11952E-004	8	..........a	-327,61
	1832	36,66	-3,17800E-002	1,17458E-004	0,00000E+000	-3,20001E-002	7,77849E-005	8	..........a	-327,61
	1840	36,82	-3,97833E-002	1,13868E-004	0,00000E+000	-4,00001E-002	1,16952E-004	8	..........a	-327,61
	1848	36,98	-4,77650E-002	1,10604E-004	0,00000E+000	-4,80000E-002	8,77849E-005	8	..........a	-327,61
	1856	37,14	-5,57296E-002	1,07486E-004	0,00000E+000	-5,60001E-002	1,16118E-004	8	..........a	-327,61
	1864	37,3	-6,37358E-002	1,05096E-004	0,00000E+000	-6,40001E-002	1,21952E-004	8	..........a	-327,61
	1872	37,46	-7,17304E-002	1,02711E-004	0,00000E+000	-7,20001E-002	1,06952E-004	8	..........a	-327,61
	1880	37,62	-7,96879E-002	1,00429E-004	0,00000E+000	-8,00000E-002	9,61182E-005	8	..........a	-327,61
	1888	37,78	-8,76596E-002	9,79556E-005	0,00000E+000	-8,80001E-002	1,48618E-004	8	..........a	-327,61
	1896	37,94	-9,56779E-002	9,56687E-005	0,00000E+000	-9,60001E-002	1,16118E-004	8	..........a	-327,61
	1904	38,1	-1,03640E-001	9,37199E-005	0,00000E+000	-1,04000E-001	1,06952E-004	8	..........a	-327,61
	1912	38,26	-1,11634E-001	9,12929E-005	0,00000E+000	-1,12000E-001	1,36118E-004	8	..........a	-327,61
	1920	38,42	-1,19655E-001	8,92703E-005	0,00000E+000	-1,20000E-001	1,07785E-004	8	..........a	-327,61
	1928	38,58	-1,27654E-001	8,72596E-005	0,00000E+000	-1,28000E-001	1,11118E-004	8	..........a	-327,61
	1936	38,74	-1,35606E-001	8,54656E-005	0,00000E+000	-1,36000E-001	1,27785E-004	8	..........a	-327,61
	1944	38,9	-1,43615E-001	8,36450E-005	0,00000E+000	-1,44000E-001	1,21952E-004	8	..........a	-327,61
	1952	39,06	-1,51612E-001	8,16570E-005	0,00000E+000	-1,52000E-001	1,11118E-004	8	..........a	-327,61
	1960	39,22	-1,59566E-001	7,96250E-005	0,00000E+000	-1,60000E-001	9,94516E-005	8	..........a	-327,61
	1968	39,38	-1,67597E-001	7,82080E-005	0,00000E+000	-1,68000E-001	1,21118E-004	8	..........a	-327,61
	1976	39,54	-1,75561E-001	7,65287E-005	0,00000E+000	-1,76000E-001	8,44516E-005	8	..........a	-327,61
	1984	39,7	-1,83535E-001	7,48512E-005	0,00000E+000	-1,84000E-001	9,77849E-005	8	..........a	-327,61
	1992	39,86	-1,91547E-001	7,29572E-005	0,00000E+000	-1,92000E-001	1,51118E-004	8	..........a	-327,61
	2000	40,02	-1,99561E-001	7,13107E-005	0,00000E+000	-2,00000E-001	1,06952E-004	8	..........a	-327,61
	2008	40,18	-2,07536E-001	6,94980E-005	0,00000E+000	-2,08000E-001	1,10285E-004	8	..........a	-327,61
	2016	40,34	-2,15520E-001	6,83185E-005	0,00000E+000	-2,16000E-001	1,18618E-004	8	..........a	-327,61
	2024	40,5	-2,23554E-001	6,66312E-005	0,00000E+000	-2,24000E-001	1,07785E-004	8	..........a	-327,61
	2032	40,66	-2,31520E-001	6,54132E-005	0,00000E+000	-2,32000E-001	1,06118E-004	8	..........a	-327,61
	2040	40,82	-2,39493E-001	6,38238E-005	0,00000E+000	-2,40000E-001	1,07785E-004	8	..........a	-327,61
	2048	40,98	-2,47517E-001	6,24153E-005	0,00000E+000	-2,48000E-001	1,24452E-004	8	..........a	-327,61
	2056	41,14	-2,55512E-001	6,09507E-005	0,00000E+000	-2,56000E-001	9,86182E-005	8	..........a	-327,61
	2064	41,3	-2,63471E-001	5,95128E-005	0,00000E+000	-2,64000E-001	1,12785E-004	8	..........a	-327,61
	2072	41,46	-2,71484E-001	5,78620E-005	0,00000E+000	-2,72000E-001	1,04452E-004	8	..........a	-327,61
	2080	41,62	-2,79466E-001	5,64728E-005	0,00000E+000	-2,80000E-001	8,11182E-005	8	..........a	-327,61
	2088	41,78	-2,87443E-001	5,51627E-005	0,00000E+000	-2,88000E-001	8,94516E-005	8	..........a	-327,61
	2096	41,94	-2,95457E-001	5,37914E-005	0,00000E+000	-2,96000E-001	1,05285E-004	8	..........a	-327,61
	2104	42,1	-3,03454E-001	5,27829E-005	0,00000E+000	-3,04000E-001	1,01952E-004	8	..........a	-327,61
	2112	42,26	-3,11417E-001	5,11611E-005	0,00000E+000	-3,12000E-001	9,44515E-005	8	..........a	-327,61
	2120	42,42	-3,19411E-001	4,98037E-005	0,00000E+000	-3,20000E-001	1,36118E-004	8	..........a	-327,61
	2128	42,58	-3,27422E-001	4,85152E-005	0,00000E+000	-3,28000E-001	8,19516E-005	8	..........a	-327,61
	2136	42,74	-3,35399E-001	4,74196E-005	0,00000E+000	-3,36000E-001	8,86182E-005	8	..........a	-327,61
	2144	42,9	-3,43385E-001	4,61486E-005	0,00000E+000	-3,44000E-001	1,12785E-004	8	..........a	-327,61
	2152	43,06	-3,51398E-001	4,48427E-005	0,00000E+000	-3,52000E-001	9,94516E-005	8	..........a	-327,61
	2160	43,22	-3,59357E-001	4,33806E-005	0,00000E+000	-3,60000E-001	9,11182E-005	8	..........a	-327,61
	2168	43,38	-3,67325E-001	4,20765E-005	0,00000E+000	-3,68000E-001	1,28618E-004	8	..........a	-327,61
	2176	43,54	-3,75352E-001	4,08418E-005	0,00000E+000	-3,76000E-001	1,15285E-004	8	..........a	-327,61
	2184	43,7	-3,83348E-001	3,93723E-005	0,00000E+000	-3,84000E-001	1,07785E-004	8	..........a	-327,61
	2192	43,86	-3,91315E-001	3,82606E-005	0,00000E+000	-3,92000E-001	8,86182E-005	8	..........a	-327,61
	2200	44,02	-3,99322E-001	3,69816E-005	0,00000E+000	-4,00000E-001	1,20285E-004	8	..........a	-327,61
	2208	44,18	-4,07332E-001	3,58772E-005	0,00000E+000	-4,08000E-001	1,02785E-004	8	..........a	-327,61
	2216	44,34	-4,15310E-001	3,47169E-005	0,00000E+000	-4,16000E-001	1,37785E-004	8	..........a	-327,61
	2224	44,5	-4,23315E-001	3,35187E-005	0,00000E+000	-4,24000E-001	1,10285E-004	8	..........a	-327,61
	2232	44,66	-4,31309E-001	3,24502E-005	0,00000E+000	-4,32000E-001	1,11952E-004	8	..........a	-327,61
	2240	44,82	-4,39286E-001	3,12292E-005	0,00000E+000	-4,40000E-001	1,19452E-004	8	..........a	-327,61
	2248	44,98	-4,47277E-001	3,03370E-005	0,00000E+000	-4,48000E-001	1,49452E-004	8	..........a	-327,61
	2256	45,14	-4,55292E-001	2,91250E-005	0,00000E+000	-4,56000E-001	1,12785E-004	8	..........a	-327,61
	2264	45,3	-4,63237E-001	2,82519E-005	0,00000E+000	-4,64000E-001	1,03618E-004	8	..........a	-327,61
	2272	45,46	-4,71236E-001	2,70407E-005	0,00000E+000	-4,72000E-001	1,24452E-004	8	..........a	-327,61
	2280	45,62	-4,79252E-001	2,60710E-005	0,00000E+000	-4,80000E-001	1,19452E-004	8	..........a	-327,61
	2288	45,78	-4,87216E-001	2,49891E-005	0,00000E+000	-4,88000E-001	1,21118E-004	8	..........a	-327,61
	2296	45,94	-4,95454E-001	2,39684E-005	0,00000E+000	-4,96000E-001	9,77849E-005	7	..........a	-327,61
	2304	46,1	-5,03470E-001	2,29439E-005	0,00000E+000	-5,04000E-001	1,14452E-004	7	..........a	-327,61
	2312	46,26	-5,11449E-001	2,19345E-005	0,00000E+000	-5,12000E-001	1,03618E-004	7	..........a	-327,61
	2320	46,42	-5,19413E-001	2,08801E-005	0,00000E+000	-5,20000E-001	1,11118E-004	7	..........a	-327,61
	2328	46,58	-5,27387E-001	1,98976E-005	0,00000E+000	-5,28000E-001	1,09452E-004	7	..........a	-327,61
	2336	46,74	-5,35393E-001	1,87810E-005	0,00000E+000	-5,36000E-001	9,86182E-005	7	..........a	-327,61
	2344	46,9	-5,43359E-001	1,78356E-005	0,00000E+000	-5,44000E-001	8,61182E-005	7	..........a	-327,61
	2352	47,06	-5,51354E-001	1,69834E-005	0,00000E+000	-5,52000E-001	1,31118E-004	7	..........a	-327,61
	2360	47,22	-5,59327E-001	1,60004E-005	0,00000E+000	-5,60000E-001	1,04452E-004	7	..........a	-327,61
	2368	47,38	-5,67295E-001	1,52453E-005	0,00000E+000	-5,68000E-001	1,11952E-004	7	..........a	-327,61
	2376	47,54	-5,75272E-001	1,45604E-005	0,00000E+000	-5,76000E-001	1,62785E-004	7	..........a	-327,61
	2384	47,7	-5,83273E-001	1,36495E-005	0,00000E+000	-5,84000E-001	1,16118E-004	7	..........a	-327,61
	2392	47,86	-5,91230E-001	1,27330E-005	0,00000E+000	-5,92000E-001	1,02785E-004	7	..........a	-327,61
	2400	48,02	-5,99213E-001	1,18591E-005	0,00000E+000	-6,00000E-001	1,11118E-004	7	..........a	-327,61
	2408	48,18	-6,07217E-001	1,12485E-005	0,00000E+000	-6,08000E-001	1,44452E-004	7	..........a	-327,61
	2416	48,34	-6,15194E-001	1,04387E-005	0,00000E+000	-6,16000E-001	1,21118E-004	7	..........a	-327,61
	2424	48,5	-6,23176E-001	9,61011E-006	0,00000E+000	-6,24000E-001	1,34452E-004	7	..........a	-327,61
	2432	48,66	-6,31187E-001	8,73333E-006	0,00000E+000	-6,32000E-001	1,58618E-004	7	..........a	-327,61
	2440	48,82	-6,39159E-001	7,83557E-006	0,00000E+000	-6,40000E-001	1,26952E-004	7	..........a	-327,61
	2448	48,98	-6,47119E-001	6,99045E-006	0,00000E+000	-6,48000E-001	1,55285E-004	7	..........a	-327,61
	2456	49,14	-6,55123E-001	6,10733E-006	0,00000E+000	-6,56000E-001	1,46118E-004	7	..........a	-327,61
	2464	49,3	-6,63109E-001	5,30842E-006	0,00000E+000	-6,64000E-001	1,33618E-004	7	..........a	-327,61
	2472	49,46	-6,71059E-001	4,44830E-006	0,00000E+000	-6,72000E-001	1,48618E-004	7	..........a	-327,61
	2480	49,62	-6,79059E-001	3,62837E-006	0,00000E+000	-6,80000E-001	1,63618E-004	7	..........a	-327,61
	2488	49,78	-6,87026E-001	2,88817E-006	0,00000E+000	-6,88000E-001	1,46952E-004	7	..........a	-327,61
	2496	49,94	-6,95007E-001	2,10403E-006	0,00000E+000	-6,96000E-001	1,29452E-004	7	..........a	-327,61
	2504	50,1	-7,02981E-001	1,31390E-006	0,00000E+000	-7,04000E-001	1,30285E-004	7	..........a	-327,61
	2512	50,26	-7,10989E-001	4,86228E-007	0,00000E+000	-7,12000E-001	1,10285E-004	7	..........a	-327,61
	2520	50,42	-7,18951E-001	-2,86442E-007	0,00000E+000	-7,20000E-001	1,09452E-004	7	..........a	-327,61
	2528	50,58	-7,26945E-001	-1,10814E-006	0,00000E+000	-7,28000E-001	1,31118E-004	7	..........a	-327,61
	2536	50,74	-7,34949E-001	-1,85623E-006	0,00000E+000	-7,36000E-001	1,09452E-004	7	..........a	-327,61
	2544	50,9	-7,42908E-001	-2,69374E-006	0,00000E+000	-7,44000E-001	1,05285E-004	7	..........a	-327,61
	2552	51,06	-7,50890E-001	-3,50513E-006	0,00000E+000	-7,52000E-001	1,29452E-004	7	..........a	-327,61
	2560	51,22	-7,58893E-001	-4,30445E-006	0,00000E+000	-7,60000E-001	1,09452E-004	7	..........a	-327,61
	2568	51,38	-7,66867E-001	-5,14376E-006	0,00000E+000	-7,68000E-001	1,06952E-004	7	..........a	-327,61
	2576	51,54	-7,74825E-001	-6,02866E-006	0,00000E+000	-7,76000E-001	1,09452E-004	7	..........a	-327,61
	2584	51,7	-7,82817E-001	-6,91279E-006	0,00000E+000	-7,84000E-001	1,18618E-004	7	..........a	-327,61
	2592	51,86	-7,90791E-001	-7,78816E-006	0,00000E+000	-7,92000E-001	1,02785E-004	7	..........a	-327,61
	2600	52,02	-7,98757E-001	-8,71674E-006	0,00000E+000	-8,00000E-001	8,44516E-005	7	..........a	-327,61
	2608	52,18	-8,06780E-001	-9,65116E-006	0,00000E+000	-8,08000E-001	1,46952E-004	7	..........a	-327,61
	2616	52,34	-8,14754E-001	-1,05824E-005	0,00000E+000	-8,16000E-001	1,00285E-004	7	..........a	-327,61
	2624	52,5	-8,22754E-001	-1,15425E-005	0,00000E+000	-8,24000E-001	1,24452E-004	7	..........a	-327,61
	2632	52,66	-8,30711E-001	-1,25190E-005	0,00000E+000	-8,32000E-001	1,37785E-004	7	..........a	-327,61
	2640	52,82	-8,38727E-001	-1,35410E-005	0,00000E+000	-8,40000E-001	1,01118E-004	7	..........a	-327,61
	2648	52,98	-8,46687E-001	-1,45700E-005	0,00000E+000	-8,48000E-001	1,17785E-004	7	..........a	-327,61
	2656	53,14	-8,54672E-001	-1,56570E-005	0,00000E+000	-8,56000E-001	1,13618E-004	7	..........a	-327,61
	2664	53,3	-8,62679E-001	-1,67369E-005	0,00000E+000	-8,64000E-001	9,69516E-005	7	..........a	-327,61
	2672	53,46	-8,70622E-001	-1,78435E-005	0,00000E+000	-8,72000E-001	9,11182E-005	7	..........a	-327,61
	2680	53,62	-8,78594E-001	-1,89897E-005	0,00000E+000	-8,80000E-001	9,02849E-005	7	..........a	-327,61
	2688	53,78	-8,86603E-001	-2,01320E-005	0,00000E+000	-8,88000E-001	8,27849E-005	7	..........a	-327,61
	2696	53,94	-8,94574E-001	-2,12886E-005	0,00000E+000	-8,96000E-001	7,36182E-005	7	..........a	-327,61
	2704	54,1	-9,02549E-001	-2,24167E-005	0,00000E+000	-9,04000E-001	8,11182E-005	7	..........a	-327,61
	2712	54,26	-9,10529E-001	-2,35595E-005	0,00000E+000	-9,12000E-001	1,14452E-004	7	..........a	-327,61
	2720	54,42	-9,18519E-001	-2,46796E-005	0,00000E+000	-9,20000E-001	8,86182E-005	7	..........a	-327,61
	2728	54,58	-9,26481E-001	-2,57959E-005	0,00000E+000	-9,28000E-001	1,20285E-004	7	..........a	-327,61
	2736	54,74	-9,34799E-001	-2,70395E-005	0,00000E+000	-9,36000E-001	1,56118E-004	8	..........a	-327,61
	2744	54,9	-9,42791E-001	-2,81214E-005	0,00000E+000	-9,44000E-001	1,23618E-004	8	..........a	-327,61
	2752	55,06	-9,50778E-001	-2,92344E-005	0,00000E+000	-9,52000E-001	1,12785E-004	8	..........a	-327,61
	2760	55,22	-9,58758E-001	-3,03716E-005	0,00000E+000	-9,60000E-001	1,26118E-004	8	..........a	-327,61
	2768	55,38	-9,66781E-001	-3,15098E-005	0,00000E+000	-9,68000E-001	1,41952E-004	8	..........a	-327,61
	2776	55,54	-9,74726E-001	-3,26626E-005	0,00000E+000	-9,76000E-001	1,29452E-004	8	..........a	-327,61
	2784	55,7	-9,82721E-001	-3,38414E-005	0,00000E+000	-9,84000E-001	1,06118E-004	8	..........a	-327,61
	2792	55,86	-9,90747E-001	-3,50475E-005	0,00000E+000	-9,92000E-001	1,36118E-004	8	..........a	-327,61
	2800	56,02	-9,98707E-001	-3,62984E-005	0,00000E+000	-1,00000E+000	1,38618E-004	8	..........a	-327,61
	2808	56,18	-1,00669E+000	-3,76100E-005	0,00000E+000	-1,00800E+000	1,35285E-004	8	..........a	-327,61
	2816	56,34	-1,01473E+000	-3,91226E-005	0,00000E+000	-1,01600E+000	1,48618E-004	8	..........a	-327,61
	2824	56,5	-1,02271E+000	-4,09124E-005	0,00000E+000	-1,02400E+000	1,19452E-004	8	..........a	-327,61
	2832	56,66	-1,03070E+000	-4,30464E-005	0,00000E+000	-1,03200E+000	1,32785E-004	8	..........a	-327,61
	2840	56,82	-1,03868E+000	-4,55860E-005	0,00000E+000	-1,04000E+000	1,34452E-004	8	..........a	-327,61
	2848	56,98	-1,04668E+000	-4,85996E-005	0,00000E+000	-1,04800E+000	1,22785E-004	8	..........a	-327,61
	2856	57,14	-1,05465E+000	-5,20751E-005	0,00000E+000	-1,05600E+000	1,31952E-004	8	..........a	-327,61
	2864	57,3	-1,06266E+000	-5,61995E-005	0,00000E+000	-1,06400E+000	1,51118E-004	8	..........a	-327,61
	2872	57,46	-1,07065E+000	-6,10134E-005	0,00000E+000	-1,07200E+000	1,14452E-004	8	..........a	-327,61
	2880	57,62	-1,07861E+000	-6,66617E-005	0,00000E+000	-1,08000E+000	1,32785E-004	8	..........a	-327,61
	2888	57,78	-1,08660E+000	-7,30425E-005	0,00000E+000	-1,08800E+000	1,40285E-004	8	..........a	-327,61
	2896	57,94	-1,09459E+000	-8,00491E-005	0,00000E+000	-1,09600E+000	1,03618E-004	8	..........a	-327,61
	2904	58,1	-1,10255E+000	-8,75109E-005	0,00000E+000	-1,10400E+000	1,00285E-004	8	..........a	-327,61
	2912	58,26	-1,11052E+000	-9,52964E-005	0,00000E+000	-1,11200E+000	1,11118E-004	8	..........a	-327,61
	2920	58,42	-1,11855E+000	-1,03304E-004	0,00000E+000	-1,12000E+000	1,18618E-004	8	..........a	-327,61
	2928	58,58	-1,12651E+000	-1,11607E-004	0,00000E+000	-1,12800E+000	1,15285E-004	8	..........a	-327,61
	2936	58,74	-1,13449E+000	-1,20394E-004	0,00000E+000	-1,13600E+000	1,11952E-004	8	..........a	-327,61
	2944	58,9	-1,14251E+000	-1,29815E-004	0,00000E+000	-1,14400E+000	1,32785E-004	8	..........a	-327,61
	2952	59,06	-1,15045E+000	-1,40093E-004	0,00000E+000	-1,15200E+000	1,13618E-004	8	..........a	-327,61
	2960	59,22	-1,15843E+000	-1,51299E-004	0,00000E+000	-1,16000E+000	1,10285E-004	8	..........a	-327,61
	2968	59,38	-1,16644E+000	-1,63025E-004	0,00000E+000	-1,16800E+000	1,41118E-004	8	..........a	-327,61
	2976	59,54	-1,17441E+000	-1,75202E-004	0,00000E+000	-1,17600E+000	9,69516E-005	8	..........a	-327,61
	2984	59,7	-1,18234E+000	-1,87920E-004	0,00000E+000	-1,18400E+000	9,36182E-005	8	..........a	-327,61
	2992	59,86	-1,19035E+000	-2,01180E-004	0,00000E+000	-1,19200E+000	1,16952E-004	8	..........a	-327,61
	3000	60,02	-1,19834E+000	-2,14820E-004	0,00000E+000	-1,20000E+000	8,19516E-005	8	..........a	-327,61
	3008	60,18	-1,20629E+000	-2,28371E-004	0,00000E+000	-1,20800E+000	7,27849E-005	8	..........a	-327,61
	3016	60,34	-1,21426E+000	-2,41025E-004	0,00000E+000	-1,21600E+000	5,77849E-005	8	..........a	-327,61
	3024	60,5	-1,22227E+000	-2,51740E-004	0,00000E+000	-1,22400E+000	7,94516E-005	8	..........a	-327,61
	3032	60,66	-1,23023E+000	-2,59478E-004	0,00000E+000	-1,23200E+000	7,44516E-005	8	..........a	-327,61
	3040	60,82	-1,23823E+000	-2,63820E-004	0,00000E+000	-1,24000E+000	9,36182E-005	8	..........a	-327,61
	3048	60,98	-1,24623E+000	-2,65060E-004	0,00000E+000	-1,24800E+000	8,52849E-005	8	..........a	-327,61
	3056	61,14	-1,25422E+000	-2,64509E-004	0,00000E+000	-1,25600E+000	7,02849E-005	8	..........a	-327,61
	3064	61,3	-1,26220E+000	-2,63941E-004	0,00000E+000	-1,26400E+000	7,19516E-005	8	..........a	-327,61
	3072	61,46	-1,27021E+000	-2,64511E-004	0,00000E+000	-1,27200E+000	8,02849E-005	8	..........a	-327,61
	3080	61,62	-1,27844E+000	-2,67681E-004	0,00000E+000	-1,28000E+000	9,11182E-005	9	..........a	-327,61
	3088	61,78	-1,28640E+000	-2,71955E-004	0,00000E+000	-1,28800E+000	1,26952E-004	9	..........a	-327,61
	3096	61,94	-1,29441E+000	-2,77732E-004	0,00000E+000	-1,29600E+000	1,20285E-004	9	..........a	-327,61
	3104	62,1	-1,30240E+000	-2,84388E-004	0,00000E+000	-1,30400E+000	8,69515E-005	9	..........a	-327,61
	3112	62,26	-1,31037E+000	-2,91619E-004	0,00000E+000	-1,31200E+000	7,86182E-005	9	..........a	-327,61
	3120	62,42	-1,31838E+000	-2,99499E-004	0,00000E+000	-1,32000E+000	1,58618E-004	9	..........a	-327,61
	3128	62,58	-1,32639E+000	-3,07571E-004	0,00000E+000	-1,32800E+000	9,86182E-005	9	..........a	-327,61
	3136	62,74	-1,33436E+000	-3,15977E-004	0,00000E+000	-1,33600E+000	9,44515E-005	9	..........a	-327,61
	3144	62,9	-1,34235E+000	-3,25053E-004	0,00000E+000	-1,34400E+000	1,31952E-004	9	..........a	-327,61
	3152	63,06	-1,35036E+000	-3,34404E-004	0,00000E+000	-1,35200E+000	1,10285E-004	9	..........a	-327,61
	3160	63,22	-1,35834E+000	-3,45044E-004	0,00000E+000	-1,36000E+000	9,02849E-005	9	..........a	-327,61
	3168	63,38	-1,36632E+000	-3,55468E-004	0,00000E+000	-1,36800E+000	1,01118E-004	9	..........a	-327,61
	3176	63,54	-1,37434E+000	-3,66359E-004	0,00000E+000	-1,37600E+000	1,11118E-004	9	..........a	-327,61
	3184	63,7	-1,38233E+000	-3,78068E-004	0,00000E+000	-1,38400E+000	8,77849E-005	9	..........a	-327,61
	3192	63,86	-1,39028E+000	-3,89923E-004	0,00000E+000	-1,39200E+000	8,27849E-005	9	..........a	-327,61
	3200	64,02	-1,39830E+000	-4,02820E-004	0,00000E+000	-1,40000E+000	1,20285E-004	9	..........a	-327,61
	3208	64,18	-1,40628E+000	-4,16052E-004	0,00000E+000	-1,40800E+000	7,77849E-005	9	..........a	-327,61
	3216	64,34	-1,41425E+000	-4,32349E-004	0,00000E+000	-1,41600E+000	7,69515E-005	9	..........a	-327,61
	3224	64,5	-1,42228E+000	-4,47290E-004	0,00000E+000	-1,42400E+000	1,04452E-004	9	..........a	-327,61
	3232	64,66	-1,43027E+000	-4,64086E-004	0,00000E+000	-1,43200E+000	8,19516E-005	9	..........a	-327,61
	3240	64,82	-1,43826E+000	-4,83911E-004	0,00000E+000	-1,44000E+000	9,02849E-005	9	..........a	-327,61
	3248	64,98	-1,44624E+000	-5,02060E-004	0,00000E+000	-1,44800E+000	1,37785E-004	9	..........a	-327,61
	3256	65,14	-1,45424E+000	-5,22420E-004	0,00000E+000	-1,45600E+000	7,61182E-005	9	..........a	-327,61
	3264	65,3	-1,46222E+000	-5,44856E-004	0,00000E+000	-1,46400E+000	7,27849E-005	9	..........a	-327,61
	3272	65,46	-1,47020E+000	-5,67212E-004	0,00000E+000	-1,47200E+000	8,69515E-005	9	..........a	-327,61
	3280	65,62	-1,47823E+000	-5,91288E-004	0,00000E+000	-1,48000E+000	9,11182E-005	9	..........a	-327,61
	3288	65,78	-1,48618E+000	-6,16395E-004	0,00000E+000	-1,48800E+000	9,02849E-005	9	..........a	-327,61
	3296	65,94	-1,49418E+000	-6,44001E-004	0,00000E+000	-1,49600E+000	7,86182E-005	9	..........a	-327,61
	3304	66,1	-1,50218E+000	-6,70525E-004	0,00000E+000	-1,50400E+000	8,77849E-005	9	..........a	-327,61
	3312	66,26	-1,51019E+000	-7,00252E-004	0,00000E+000	-1,51200E+000	7,44516E-005	9	..........a	-327,61
	3320	66,42	-1,51815E+000	-7,31276E-004	0,00000E+000	-1,52000E+000	6,94515E-005	9	..........a	-327,61
	3328	66,58	-1,52615E+000	-7,63691E-004	0,00000E+000	-1,52800E+000	1,08618E-004	9	..........a	-327,61
	3336	66,74	-1,53413E+000	-7,99324E-004	0,00000E+000	-1,53600E+000	8,86182E-005	9	..........a	-327,61
	3344	66,9	-1,54211E+000	-8,37353E-004	0,00000E+000	-1,54400E+000	9,11182E-005	9	..........a	-327,61
	3352	67,06	-1,55012E+000	-8,73065E-004	0,00000E+000	-1,55200E+000	1,26118E-004	9	..........a	-327,61
	3360	67,22	-1,55811E+000	-9,12933E-004	0,00000E+000	-1,56000E+000	1,02785E-004	9	..........a	-327,61
	3368	67,38	-1,56608E+000	-9,54504E-004	0,00000E+000	-1,56800E+000	8,94516E-005	9	..........a	-327,61
	3376	67,54	-1,57407E+000	-9,98135E-004	0,00000E+000	-1,57600E+000	1,51118E-004	9	..........a	-327,61
	3384	67,7	-1,58207E+000	-1,04349E-003	0,00000E+000	-1,58400E+000	1,06952E-004	9	..........a	-327,61
	3392	67,86	-1,59003E+000	-1,09230E-003	0,00000E+000	-1,59200E+000	1,16118E-004	9	..........a	-327,61
	3400	68,02	-1,59800E+000	-1,14161E-003	0,00000E+000	-1,60000E+000	1,08618E-004	9	..........a	-327,61
	3408	68,18	-1,60602E+000	-1,19236E-003	0,00000E+000	-1,60800E+000	9,61182E-005	9	..........a	-327,61
	3416	68,34	-1,61399E+000	-1,24530E-003	0,00000E+000	-1,61600E+000	8,52849E-005	9	..........a	-327,61
	3424	68,5	-1,62196E+000	-1,30058E-003	0,00000E+000	-1,62400E+000	1,06952E-004	9	..........a	-327,61
	3432	68,66	-1,62999E+000	-1,35918E-003	0,00000E+000	-1,63200E+000	1,15285E-004	9	..........a	-327,61
	3440	68,82	-1,63799E+000	-1,41959E-003	0,00000E+000	-1,64000E+000	9,27849E-005	9	..........a	-327,61
	3448	68,98	-1,64594E+000	-1,48346E-003	0,00000E+000	-1,64800E+000	1,27785E-004	9	..........a	-327,61
	3456	69,14	-1,65395E+000	-1,54647E-003	0,00000E+000	-1,65600E+000	1,27785E-004	9	..........a	-327,61
	3464	69,3	-1,66194E+000	-1,60783E-003	0,00000E+000	-1,66400E+000	1,55285E-004	9	..........a	-327,61
	3472	69,46	-1,66990E+000	-1,67801E-003	0,00000E+000	-1,67200E+000	9,94516E-005	9	..........a	-327,61
	3480	69,62	-1,67790E+000	-1,74504E-003	0,00000E+000	-1,68000E+000	1,32785E-004	9	..........a	-327,61
	3488	69,78	-1,68588E+000	-1,81909E-003	0,00000E+000	-1,68800E+000	1,11952E-004	9	..........a	-327,61
	3496	69,94	-1,69383E+000	-1,89479E-003	0,00000E+000	-1,69600E+000	1,09452E-004	9	..........a	-327,61
	3504	70,1	-1,70183E+000	-1,97252E-003	0,00000E+000	-1,70400E+000	1,86952E-004	9	..........a	-327,61
	3512	70,26	-1,70981E+000	-2,04758E-003	0,00000E+000	-1,71200E+000	1,05285E-004	9	..........a	-327,61
	3520	70,42	-1,71779E+000	-2,13030E-003	0,00000E+000	-1,72000E+000	8,61182E-005	9	..........a	-327,61
	3528	70,58	-1,72577E+000	-2,21794E-003	0,00000E+000	-1,72800E+000	1,07785E-004	9	..........a	-327,61
	3536	70,74	-1,73378E+000	-2,30006E-003	0,00000E+000	-1,73600E+000	1,35285E-004	9	..........a	-327,61
	3544	70,9	-1,74175E+000	-2,39463E-003	0,00000E+000	-1,74400E+000	9,69516E-005	9	..........a	-327,61
	3552	71,06	-1,74974E+000	-2,48496E-003	0,00000E+000	-1,75200E+000	1,11952E-004	9	..........a	-327,61
	3560	71,22	-1,75774E+000	-2,56811E-003	0,00000E+000	-1,76000E+000	1,19452E-004	9	..........a	-327,61
	3568	71,38	-1,76572E+000	-2,66471E-003	0,00000E+000	-1,76800E+000	1,04452E-004	9	..........a	-327,61
	3576	71,54	-1,77397E+000	-2,77141E-003	0,00000E+000	-1,77600E+000	1,08618E-004	10	..........a	-327,61
	3584	71,7	-1,78199E+000	-2,87392E-003	0,00000E+000	-1,78400E+000	1,31118E-004	10	..........a	-327,61
	3592	71,86	-1,78997E+000	-2,98067E-003	0,00000E+000	-1,79200E+000	1,08618E-004	10	..........a	-327,61
	3600	72,02	-1,79792E+000	-3,08561E-003	0,00000E+000	-1,80000E+000	1,11952E-004	10	..........a	-327,61