File: inst/extdata/impedancia.DTA
EXPLAIN
TAG	EISPOT
TITLE	LABEL	Potentiostatic EIS	Test &Identifier
DATE	LABEL	28/6/2019	Date
TIME	LABEL	12:33:35	Time
NOTES	NOTES	1	&Notes...

PSTAT	PSTAT	REF3000-34126	Potentiostat
VDC	POTEN	0,00000E+000	T	DC &Voltage (V)
FREQINIT	QUANT	5,00000E+004	Initial Fre&q. (Hz)
FREQFINAL	QUANT	1,00000E-002	Final Fre&q. (Hz)
PTSPERDEC	QUANT	1,00000E+001	Points/&decade
VAC	QUANT	1,00000E+001	AC &Voltage (mV rms)
AREA	QUANT	1,00000E+000	&Area (cm^2)
CONDIT	TWOPARAM	F	1,50000E+001	0,00000E+000	Conditionin&g	Time(s)	E(V)
DELAY	TWOPARAM	T	3,60000E+003	0,00000E+000	Init. De&lay	Time(s)	Stab.(mV/s)
SPEED	SELECTOR	1	&Optimize for:
ZGUESS	QUANT	1,00000E+000	E&stimated Z (ohms)
OCVCURVE	TABLE	1434
	Pt	T	Vf	Vm	Ach	Over	Temp
	#	s	V vs. Ref.	V	V	bits	deg C
	0	2,51	-9,56958E-001	-9,56958E-001	1,71525E-004	..........a	-327,61
	3	10,04	-9,56955E-001	-9,56942E-001	1,66992E-004	..........a	-327,61
	6	17,57	-9,56941E-001	-9,56923E-001	1,67018E-004	..........a	-327,61
	9	25,1	-9,56925E-001	-9,56913E-001	1,60218E-004	..........a	-327,61
	12	32,63	-9,56912E-001	-9,56897E-001	1,61018E-004	..........a	-327,61
	15	40,16	-9,56898E-001	-9,56885E-001	1,61765E-004	..........a	-327,61
	18	47,69	-9,56885E-001	-9,56869E-001	1,62385E-004	..........a	-327,61
	21	55,22	-9,56871E-001	-9,56855E-001	1,63138E-004	..........a	-327,61
	24	62,75	-9,56855E-001	-9,56844E-001	1,61972E-004	..........a	-327,61
	27	70,28	-9,56844E-001	-9,56843E-001	1,58925E-004	..........a	-327,61
	30	77,81	-9,56841E-001	-9,56832E-001	1,54818E-004	..........a	-327,61
	33	85,34	-9,56834E-001	-9,56829E-001	1,56405E-004	..........a	-327,61
	36	92,87	-9,56829E-001	-9,56827E-001	1,58265E-004	..........a	-327,61
	39	100,4	-9,56827E-001	-9,56828E-001	1,56412E-004	..........a	-327,61
	42	107,93	-9,56828E-001	-9,56830E-001	1,54365E-004	..........a	-327,61
	45	115,46	-9,56828E-001	-9,56823E-001	1,56732E-004	..........a	-327,61
	48	122,99	-9,56824E-001	-9,56825E-001	1,50158E-004	..........a	-327,61
	51	130,52	-9,56825E-001	-9,56829E-001	1,46918E-004	..........a	-327,61
	54	138,05	-9,56828E-001	-9,56830E-001	1,55345E-004	..........a	-327,61
	57	145,58	-9,56829E-001	-9,56823E-001	1,59312E-004	..........a	-327,61
	60	153,11	-9,56827E-001	-9,56828E-001	1,54672E-004	..........a	-327,61
	63	160,64	-9,56827E-001	-9,56828E-001	1,62438E-004	..........a	-327,61
	66	168,17	-9,56831E-001	-9,56836E-001	1,55705E-004	..........a	-327,61
	69	175,7	-9,56836E-001	-9,56837E-001	1,60352E-004	..........a	-327,61
	72	183,23	-9,56837E-001	-9,56834E-001	1,65025E-004	..........a	-327,61
	75	190,76	-9,56837E-001	-9,56839E-001	1,61552E-004	..........a	-327,61
	78	198,29	-9,56839E-001	-9,56845E-001	1,62298E-004	..........a	-327,61
	81	205,82	-9,56842E-001	-9,56838E-001	1,64658E-004	..........a	-327,61
	84	213,35	-9,56840E-001	-9,56833E-001	1,62218E-004	..........a	-327,61
	87	220,88	-9,56836E-001	-9,56839E-001	1,64998E-004	..........a	-327,61
	90	228,41	-9,56838E-001	-9,56845E-001	1,58332E-004	..........a	-327,61
	93	235,94	-9,56843E-001	-9,56842E-001	1,64578E-004	..........a	-327,61
	96	243,47	-9,56844E-001	-9,56845E-001	1,67645E-004	..........a	-327,61
	99	251	-9,56844E-001	-9,56843E-001	1,64525E-004	..........a	-327,61
	102	258,53	-9,56842E-001	-9,56843E-001	1,69945E-004	..........a	-327,61
	105	266,06	-9,56841E-001	-9,56843E-001	1,65945E-004	..........a	-327,61
	108	273,59	-9,56841E-001	-9,56841E-001	1,67832E-004	..........a	-327,61
	111	281,12	-9,56842E-001	-9,56846E-001	1,64525E-004	..........a	-327,61
	114	288,65	-9,56847E-001	-9,56844E-001	1,60058E-004	..........a	-327,61
	117	296,18	-9,56847E-001	-9,56849E-001	1,67772E-004	..........a	-327,61
	120	303,71	-9,56848E-001	-9,56845E-001	1,63892E-004	..........a	-327,61
	123	311,24	-9,56843E-001	-9,56844E-001	1,69098E-004	..........a	-327,61
	126	318,77	-9,56841E-001	-9,56842E-001	1,60452E-004	..........a	-327,61
	129	326,3	-9,56841E-001	-9,56842E-001	1,68492E-004	..........a	-327,61
	132	333,83	-9,56841E-001	-9,56835E-001	1,69112E-004	..........a	-327,61
	135	341,36	-9,56836E-001	-9,56832E-001	1,68778E-004	..........a	-327,61
	138	348,89	-9,56833E-001	-9,56824E-001	1,60332E-004	..........a	-327,61
	141	356,42	-9,56826E-001	-9,56823E-001	1,66298E-004	..........a	-327,61
	144	363,95	-9,56823E-001	-9,56823E-001	1,68078E-004	..........a	-327,61
	147	371,48	-9,56823E-001	-9,56821E-001	1,71405E-004	..........a	-327,61
	150	379,01	-9,56820E-001	-9,56817E-001	1,65732E-004	..........a	-327,61
	153	386,54	-9,56816E-001	-9,56816E-001	1,64858E-004	..........a	-327,61
	156	394,07	-9,56813E-001	-9,56818E-001	1,67692E-004	..........a	-327,61
	159	401,6	-9,56816E-001	-9,56817E-001	1,62178E-004	..........a	-327,61
	162	409,13	-9,56818E-001	-9,56817E-001	1,61832E-004	..........a	-327,61
	165	416,66	-9,56819E-001	-9,56823E-001	1,59092E-004	..........a	-327,61
	168	424,19	-9,56823E-001	-9,56822E-001	1,67125E-004	..........a	-327,61
	171	431,72	-9,56824E-001	-9,56824E-001	1,66012E-004	..........a	-327,61
	174	439,25	-9,56823E-001	-9,56815E-001	1,66598E-004	..........a	-327,61
	177	446,78	-9,56817E-001	-9,56812E-001	1,65905E-004	..........a	-327,61
	180	454,31	-9,56814E-001	-9,56810E-001	1,56212E-004	..........a	-327,61
	183	461,84	-9,56812E-001	-9,56805E-001	1,60078E-004	..........a	-327,61
	186	469,37	-9,56807E-001	-9,56805E-001	1,59245E-004	..........a	-327,61
	189	476,9	-9,56803E-001	-9,56801E-001	1,62172E-004	..........a	-327,61
	192	484,43	-9,56800E-001	-9,56801E-001	1,57332E-004	..........a	-327,61
	195	491,96	-9,56801E-001	-9,56796E-001	1,60052E-004	..........a	-327,61
	198	499,49	-9,56796E-001	-9,56792E-001	1,57932E-004	..........a	-327,61
	201	507,02	-9,56791E-001	-9,56781E-001	1,64985E-004	..........a	-327,61
	204	514,55	-9,56783E-001	-9,56772E-001	1,64565E-004	..........a	-327,61
	207	522,08	-9,56774E-001	-9,56769E-001	1,58078E-004	..........a	-327,61
	210	529,61	-9,56770E-001	-9,56774E-001	1,64665E-004	..........a	-327,61
	213	537,14	-9,56771E-001	-9,56764E-001	1,65358E-004	..........a	-327,61
	216	544,67	-9,56765E-001	-9,56763E-001	1,57818E-004	..........a	-327,61
	219	552,2	-9,56763E-001	-9,56757E-001	1,50345E-004	..........a	-327,61
	222	559,73	-9,56756E-001	-9,56746E-001	1,58072E-004	..........a	-327,61
	225	567,26	-9,56747E-001	-9,56738E-001	1,52672E-004	..........a	-327,61
	228	574,79	-9,56741E-001	-9,56737E-001	1,56605E-004	..........a	-327,61
	231	582,32	-9,56737E-001	-9,56730E-001	1,54398E-004	..........a	-327,61
	234	589,85	-9,56733E-001	-9,56744E-001	1,55218E-004	..........a	-327,61
	237	597,38	-9,56723E-001	-9,56695E-001	1,48678E-004	..........a	-327,61
	240	604,91	-9,56697E-001	-9,56591E-001	1,42105E-004	..........a	-327,61
	243	612,44	-9,56642E-001	-9,56697E-001	1,43992E-004	..........a	-327,61
	246	619,97	-9,56682E-001	-9,56718E-001	1,50045E-004	..........a	-327,61
	249	627,5	-9,56716E-001	-9,56708E-001	1,54498E-004	..........a	-327,61
	252	635,03	-9,56710E-001	-9,56699E-001	1,50658E-004	..........a	-327,61
	255	642,56	-9,56701E-001	-9,56701E-001	1,52185E-004	..........a	-327,61
	258	650,09	-9,56700E-001	-9,56693E-001	1,51432E-004	..........a	-327,61
	261	657,62	-9,56694E-001	-9,56681E-001	1,50145E-004	..........a	-327,61
	264	665,15	-9,56683E-001	-9,56673E-001	1,49285E-004	..........a	-327,61
	267	672,68	-9,56672E-001	-9,56658E-001	1,53072E-004	..........a	-327,61
	270	680,21	-9,56660E-001	-9,56651E-001	1,49558E-004	..........a	-327,61
	273	687,74	-9,56654E-001	-9,56649E-001	1,46605E-004	..........a	-327,61
	276	695,27	-9,56649E-001	-9,56638E-001	1,38618E-004	..........a	-327,61
	279	702,8	-9,56644E-001	-9,56641E-001	1,45618E-004	..........a	-327,61
	282	710,33	-9,56641E-001	-9,56627E-001	1,38212E-004	..........a	-327,61
	285	717,86	-9,56630E-001	-9,56618E-001	1,46918E-004	..........a	-327,61
	288	725,39	-9,56621E-001	-9,56602E-001	1,45445E-004	..........a	-327,61
	291	732,92	-9,56604E-001	-9,56584E-001	1,42138E-004	..........a	-327,61
	294	740,45	-9,56586E-001	-9,56578E-001	1,45218E-004	..........a	-327,61
	297	747,98	-9,56577E-001	-9,56575E-001	1,43792E-004	..........a	-327,61
	300	755,51	-9,56572E-001	-9,56560E-001	1,52498E-004	..........a	-327,61
	303	763,04	-9,56562E-001	-9,56559E-001	1,45645E-004	..........a	-327,61
	306	770,57	-9,56557E-001	-9,56547E-001	1,50532E-004	..........a	-327,61
	309	778,1	-9,56549E-001	-9,56540E-001	1,44965E-004	..........a	-327,61
	312	785,63	-9,56542E-001	-9,56533E-001	1,50032E-004	..........a	-327,61
	315	793,16	-9,56534E-001	-9,56528E-001	1,57092E-004	..........a	-327,61
	318	800,69	-9,56528E-001	-9,56520E-001	1,49978E-004	..........a	-327,61
	321	808,22	-9,56519E-001	-9,56508E-001	1,50532E-004	..........a	-327,61
	324	815,75	-9,56509E-001	-9,56501E-001	1,53078E-004	..........a	-327,61
	327	823,28	-9,56500E-001	-9,56499E-001	1,57485E-004	..........a	-327,61
	330	830,81	-9,56498E-001	-9,56496E-001	1,49538E-004	..........a	-327,61
	333	838,34	-9,56496E-001	-9,56490E-001	1,47432E-004	..........a	-327,61
	336	845,87	-9,56489E-001	-9,56478E-001	1,50345E-004	..........a	-327,61
	339	853,4	-9,56480E-001	-9,56473E-001	1,47345E-004	..........a	-327,61
	342	860,93	-9,56472E-001	-9,56458E-001	1,51718E-004	..........a	-327,61
	345	868,46	-9,56459E-001	-9,56448E-001	1,52185E-004	..........a	-327,61
	348	875,99	-9,56449E-001	-9,56446E-001	1,56058E-004	..........a	-327,61
	351	883,52	-9,56444E-001	-9,56433E-001	1,46805E-004	..........a	-327,61
	354	891,05	-9,56435E-001	-9,56430E-001	1,49232E-004	..........a	-327,61
	357	898,58	-9,56430E-001	-9,56423E-001	1,50692E-004	..........a	-327,61
	360	906,11	-9,56424E-001	-9,56417E-001	1,54238E-004	..........a	-327,61
	363	913,64	-9,56418E-001	-9,56410E-001	1,56865E-004	..........a	-327,61
	366	921,17	-9,56410E-001	-9,56406E-001	1,49198E-004	..........a	-327,61
	369	928,7	-9,56406E-001	-9,56401E-001	1,53572E-004	..........a	-327,61
	372	936,23	-9,56402E-001	-9,56395E-001	1,51638E-004	..........a	-327,61
	375	943,76	-9,56397E-001	-9,56392E-001	1,46672E-004	..........a	-327,61
	378	951,29	-9,56393E-001	-9,56386E-001	1,47472E-004	..........a	-327,61
	381	958,82	-9,56387E-001	-9,56382E-001	1,47698E-004	..........a	-327,61
	384	966,35	-9,56382E-001	-9,56376E-001	1,44925E-004	..........a	-327,61
	387	973,88	-9,56377E-001	-9,56375E-001	1,41305E-004	..........a	-327,61
	390	981,41	-9,56375E-001	-9,56371E-001	1,44732E-004	..........a	-327,61
	393	988,94	-9,56371E-001	-9,56371E-001	1,45132E-004	..........a	-327,61
	396	996,47	-9,56370E-001	-9,56370E-001	1,46465E-004	..........a	-327,61
	399	1004	-9,56371E-001	-9,56371E-001	1,47985E-004	..........a	-327,61
	402	1011,53	-9,56370E-001	-9,56361E-001	1,48205E-004	..........a	-327,61
	405	1019,06	-9,56362E-001	-9,56361E-001	1,41678E-004	..........a	-327,61
	408	1026,59	-9,56361E-001	-9,56357E-001	1,41745E-004	..........a	-327,61
	411	1034,12	-9,56357E-001	-9,56355E-001	1,43672E-004	..........a	-327,61
	414	1041,65	-9,56354E-001	-9,56355E-001	1,51732E-004	..........a	-327,61
	417	1049,18	-9,56354E-001	-9,56356E-001	1,50598E-004	..........a	-327,61
	420	1056,71	-9,56353E-001	-9,56353E-001	1,48125E-004	..........a	-327,61
	423	1064,24	-9,56352E-001	-9,56353E-001	1,46092E-004	..........a	-327,61
	426	1071,77	-9,56352E-001	-9,56346E-001	1,47372E-004	..........a	-327,61
	429	1079,3	-9,56350E-001	-9,56351E-001	1,52352E-004	..........a	-327,61
	432	1086,83	-9,56352E-001	-9,56350E-001	1,47365E-004	..........a	-327,61
	435	1094,36	-9,56350E-001	-9,56350E-001	1,42538E-004	..........a	-327,61
	438	1101,89	-9,56349E-001	-9,56347E-001	1,41412E-004	..........a	-327,61
	441	1109,42	-9,56347E-001	-9,56344E-001	1,38165E-004	..........a	-327,61
	444	1116,95	-9,56343E-001	-9,56340E-001	1,37972E-004	..........a	-327,61
	447	1124,48	-9,56339E-001	-9,56336E-001	1,33985E-004	..........a	-327,61
	450	1132,01	-9,56337E-001	-9,56337E-001	1,35145E-004	..........a	-327,61
	453	1139,54	-9,56335E-001	-9,56331E-001	1,36805E-004	..........a	-327,61
	456	1147,07	-9,56331E-001	-9,56319E-001	1,32712E-004	..........a	-327,61
	459	1154,6	-9,56324E-001	-9,56327E-001	1,33825E-004	..........a	-327,61
	462	1162,13	-9,56325E-001	-9,56328E-001	1,36985E-004	..........a	-327,61
	465	1169,66	-9,56326E-001	-9,56328E-001	1,42778E-004	..........a	-327,61
	468	1177,19	-9,56327E-001	-9,56325E-001	1,39385E-004	..........a	-327,61
	471	1184,72	-9,56325E-001	-9,56320E-001	1,35165E-004	..........a	-327,61
	474	1192,25	-9,56320E-001	-9,56311E-001	1,34878E-004	..........a	-327,61
	477	1199,78	-9,56313E-001	-9,56307E-001	1,34978E-004	..........a	-327,61
	480	1207,31	-9,56308E-001	-9,56301E-001	1,29752E-004	..........a	-327,61
	483	1214,84	-9,56304E-001	-9,56302E-001	1,36885E-004	..........a	-327,61
	486	1222,37	-9,56303E-001	-9,56302E-001	1,35845E-004	..........a	-327,61
	489	1229,9	-9,56302E-001	-9,56297E-001	1,36658E-004	..........a	-327,61
	492	1237,43	-9,56300E-001	-9,56299E-001	1,34258E-004	..........a	-327,61
	495	1244,96	-9,56299E-001	-9,56294E-001	1,39085E-004	..........a	-327,61
	498	1252,49	-9,56295E-001	-9,56289E-001	1,40985E-004	..........a	-327,61
	501	1260,02	-9,56291E-001	-9,56289E-001	1,37165E-004	..........a	-327,61
	504	1267,55	-9,56289E-001	-9,56284E-001	1,37385E-004	..........a	-327,61
	507	1275,08	-9,56286E-001	-9,56281E-001	1,37705E-004	..........a	-327,61
	510	1282,61	-9,56282E-001	-9,56282E-001	1,34312E-004	..........a	-327,61
	513	1290,14	-9,56280E-001	-9,56280E-001	1,33598E-004	..........a	-327,61
	516	1297,67	-9,56278E-001	-9,56276E-001	1,35578E-004	..........a	-327,61
	519	1305,2	-9,56277E-001	-9,56277E-001	1,37332E-004	..........a	-327,61
	522	1312,73	-9,56277E-001	-9,56274E-001	1,40585E-004	..........a	-327,61
	525	1320,26	-9,56275E-001	-9,56270E-001	1,38918E-004	..........a	-327,61
	528	1327,79	-9,56271E-001	-9,56269E-001	1,44012E-004	..........a	-327,61
	531	1335,32	-9,56270E-001	-9,56273E-001	1,37372E-004	..........a	-327,61
	534	1342,85	-9,56271E-001	-9,56271E-001	1,36932E-004	..........a	-327,61
	537	1350,38	-9,56269E-001	-9,56268E-001	1,38085E-004	..........a	-327,61
	540	1357,91	-9,56268E-001	-9,56263E-001	1,30665E-004	..........a	-327,61
	543	1365,44	-9,56264E-001	-9,56256E-001	1,31765E-004	..........a	-327,61
	546	1372,97	-9,56258E-001	-9,56256E-001	1,29525E-004	..........a	-327,61
	549	1380,5	-9,56260E-001	-9,56285E-001	1,30472E-004	..........a	-327,61
	552	1388,03	-9,56279E-001	-9,56279E-001	1,26812E-004	..........a	-327,61
	555	1395,56	-9,56279E-001	-9,56271E-001	1,24458E-004	..........a	-327,61
	558	1403,09	-9,56270E-001	-9,56266E-001	1,28965E-004	..........a	-327,61
	561	1410,62	-9,56264E-001	-9,56252E-001	1,27898E-004	..........a	-327,61
	564	1418,15	-9,56252E-001	-9,56244E-001	1,33052E-004	..........a	-327,61
	567	1425,68	-9,56244E-001	-9,56240E-001	1,34132E-004	..........a	-327,61
	570	1433,21	-9,56240E-001	-9,56231E-001	1,18772E-004	..........a	-327,61
	573	1440,74	-9,56232E-001	-9,56225E-001	1,22678E-004	..........a	-327,61
	576	1448,27	-9,56226E-001	-9,56221E-001	1,23198E-004	..........a	-327,61
	579	1455,8	-9,56222E-001	-9,56218E-001	1,28985E-004	..........a	-327,61
	582	1463,33	-9,56217E-001	-9,56203E-001	1,31545E-004	..........a	-327,61
	585	1470,86	-9,56203E-001	-9,56189E-001	1,33205E-004	..........a	-327,61
	588	1478,39	-9,56191E-001	-9,56179E-001	1,24025E-004	..........a	-327,61
	591	1485,92	-9,56180E-001	-9,56168E-001	1,22745E-004	..........a	-327,61
	594	1493,45	-9,56167E-001	-9,56155E-001	1,27738E-004	..........a	-327,61
	597	1500,98	-9,56156E-001	-9,56146E-001	1,29225E-004	..........a	-327,61
	600	1508,51	-9,56147E-001	-9,56139E-001	1,27605E-004	..........a	-327,61
	603	1516,04	-9,56140E-001	-9,56150E-001	1,26405E-004	..........a	-327,61
	606	1523,57	-9,56145E-001	-9,56147E-001	1,31645E-004	..........a	-327,61
	609	1531,1	-9,56145E-001	-9,56134E-001	1,32605E-004	..........a	-327,61
	612	1538,63	-9,56134E-001	-9,56124E-001	1,29198E-004	..........a	-327,61
	615	1546,16	-9,56127E-001	-9,56123E-001	1,30812E-004	..........a	-327,61
	618	1553,69	-9,56131E-001	-9,56144E-001	1,26758E-004	..........a	-327,61
	621	1561,22	-9,56144E-001	-9,56139E-001	1,30312E-004	..........a	-327,61
	624	1568,75	-9,56140E-001	-9,56138E-001	1,29145E-004	..........a	-327,61
	627	1576,28	-9,56136E-001	-9,56144E-001	1,30525E-004	..........a	-327,61
	630	1583,81	-9,56139E-001	-9,56137E-001	1,30532E-004	..........a	-327,61
	633	1591,34	-9,56138E-001	-9,56132E-001	1,27005E-004	..........a	-327,61
	636	1598,87	-9,56133E-001	-9,56144E-001	1,21345E-004	..........a	-327,61
	639	1606,4	-9,56139E-001	-9,56131E-001	1,22832E-004	..........a	-327,61
	642	1613,93	-9,56133E-001	-9,56121E-001	1,25925E-004	..........a	-327,61
	645	1621,46	-9,56122E-001	-9,56107E-001	1,26792E-004	..........a	-327,61
	648	1628,99	-9,56108E-001	-9,56094E-001	1,24998E-004	..........a	-327,61
	651	1636,52	-9,56096E-001	-9,56093E-001	1,17085E-004	..........a	-327,61
	654	1644,05	-9,56091E-001	-9,56084E-001	1,20078E-004	..........a	-327,61
	657	1651,58	-9,56085E-001	-9,56076E-001	1,20285E-004	..........a	-327,61
	660	1659,11	-9,56077E-001	-9,56065E-001	1,18385E-004	..........a	-327,61
	663	1666,64	-9,56068E-001	-9,56058E-001	1,17632E-004	..........a	-327,61
	666	1674,17	-9,56059E-001	-9,56054E-001	1,25005E-004	..........a	-327,61
	669	1681,7	-9,56054E-001	-9,56048E-001	1,26025E-004	..........a	-327,61
	672	1689,23	-9,56046E-001	-9,56041E-001	1,19445E-004	..........a	-327,61
	675	1696,76	-9,56040E-001	-9,56031E-001	1,24378E-004	..........a	-327,61
	678	1704,29	-9,56031E-001	-9,56017E-001	1,22632E-004	..........a	-327,61
	681	1711,82	-9,56018E-001	-9,56005E-001	1,23838E-004	..........a	-327,61
	684	1719,35	-9,56006E-001	-9,56000E-001	1,24278E-004	..........a	-327,61
	687	1726,88	-9,56000E-001	-9,56006E-001	1,22885E-004	..........a	-327,61
	690	1734,41	-9,56001E-001	-9,55996E-001	1,18358E-004	..........a	-327,61
	693	1741,94	-9,55996E-001	-9,55985E-001	1,19085E-004	..........a	-327,61
	696	1749,47	-9,55986E-001	-9,55983E-001	1,25718E-004	..........a	-327,61
	699	1757	-9,55981E-001	-9,55975E-001	1,15645E-004	..........a	-327,61
	702	1764,53	-9,55974E-001	-9,55964E-001	1,22398E-004	..........a	-327,61
	705	1772,06	-9,55967E-001	-9,55962E-001	1,18938E-004	..........a	-327,61
	708	1779,59	-9,55968E-001	-9,55980E-001	1,22305E-004	..........a	-327,61
	711	1787,12	-9,55976E-001	-9,55973E-001	1,25565E-004	..........a	-327,61
	714	1794,65	-9,55973E-001	-9,55971E-001	1,21118E-004	..........a	-327,61
	717	1802,18	-9,55970E-001	-9,55962E-001	1,19198E-004	..........a	-327,61
	720	1809,71	-9,55964E-001	-9,55951E-001	1,22038E-004	..........a	-327,61
	723	1817,24	-9,55954E-001	-9,55953E-001	1,22618E-004	..........a	-327,61
	726	1824,77	-9,55951E-001	-9,55946E-001	1,22372E-004	..........a	-327,61
	729	1832,3	-9,55946E-001	-9,55935E-001	1,21472E-004	..........a	-327,61
	732	1839,83	-9,55935E-001	-9,55926E-001	1,18932E-004	..........a	-327,61
	735	1847,36	-9,55926E-001	-9,55919E-001	1,21372E-004	..........a	-327,61
	738	1854,89	-9,55920E-001	-9,55915E-001	1,18085E-004	..........a	-327,61
	741	1862,42	-9,55915E-001	-9,55908E-001	1,20752E-004	..........a	-327,61
	744	1869,95	-9,55908E-001	-9,55903E-001	1,20978E-004	..........a	-327,61
	747	1877,48	-9,55903E-001	-9,55891E-001	1,15965E-004	..........a	-327,61
	750	1885,01	-9,55894E-001	-9,55893E-001	1,18178E-004	..........a	-327,61
	753	1892,54	-9,55891E-001	-9,55884E-001	1,21445E-004	..........a	-327,61
	756	1900,07	-9,55884E-001	-9,55880E-001	1,16232E-004	..........a	-327,61
	759	1907,6	-9,55878E-001	-9,55868E-001	1,20272E-004	..........a	-327,61
	762	1915,13	-9,55869E-001	-9,55862E-001	1,21718E-004	..........a	-327,61
	765	1922,66	-9,55861E-001	-9,55851E-001	1,19672E-004	..........a	-327,61
	768	1930,19	-9,55853E-001	-9,55839E-001	1,18298E-004	..........a	-327,61
	771	1937,72	-9,55841E-001	-9,55831E-001	1,17458E-004	..........a	-327,61
	774	1945,25	-9,55830E-001	-9,55819E-001	1,19918E-004	..........a	-327,61
	777	1952,78	-9,55820E-001	-9,55810E-001	1,27565E-004	..........a	-327,61
	780	1960,31	-9,55810E-001	-9,55801E-001	1,30172E-004	..........a	-327,61
	783	1967,84	-9,55800E-001	-9,55791E-001	1,25132E-004	..........a	-327,61
	786	1975,37	-9,55793E-001	-9,55785E-001	1,24325E-004	..........a	-327,61
	789	1982,9	-9,55783E-001	-9,55770E-001	1,32025E-004	..........a	-327,61
	792	1990,43	-9,55772E-001	-9,55768E-001	1,34172E-004	..........a	-327,61
	795	1997,96	-9,55770E-001	-9,55772E-001	1,43272E-004	..........a	-327,61
	798	2005,49	-9,55770E-001	-9,55759E-001	1,39638E-004	..........a	-327,61
	801	2013,02	-9,55760E-001	-9,55750E-001	1,38185E-004	..........a	-327,61
	804	2020,55	-9,55750E-001	-9,55743E-001	1,35345E-004	..........a	-327,61
	807	2028,08	-9,55743E-001	-9,55739E-001	1,41732E-004	..........a	-327,61
	810	2035,61	-9,55739E-001	-9,55727E-001	1,40032E-004	..........a	-327,61
	813	2043,14	-9,55733E-001	-9,55733E-001	1,39798E-004	..........a	-327,61
	816	2050,67	-9,55731E-001	-9,55729E-001	1,43818E-004	..........a	-327,61
	819	2058,2	-9,55730E-001	-9,55731E-001	1,39385E-004	..........a	-327,61
	822	2065,73	-9,55732E-001	-9,55726E-001	1,38825E-004	..........a	-327,61
	825	2073,26	-9,55728E-001	-9,55719E-001	1,38925E-004	..........a	-327,61
	828	2080,79	-9,55719E-001	-9,55708E-001	1,46972E-004	..........a	-327,61
	831	2088,32	-9,55709E-001	-9,55698E-001	1,45652E-004	..........a	-327,61
	834	2095,85	-9,55700E-001	-9,55694E-001	1,43945E-004	..........a	-327,61
	837	2103,38	-9,55693E-001	-9,55693E-001	1,48598E-004	..........a	-327,61
	840	2110,91	-9,55690E-001	-9,55680E-001	1,52852E-004	..........a	-327,61
	843	2118,44	-9,55679E-001	-9,55661E-001	1,55745E-004	..........a	-327,61
	846	2125,97	-9,55670E-001	-9,55673E-001	1,51458E-004	..........a	-327,61
	849	2133,5	-9,55673E-001	-9,55676E-001	1,50212E-004	..........a	-327,61
	852	2141,03	-9,55674E-001	-9,55659E-001	1,53838E-004	..........a	-327,61
	855	2148,56	-9,55660E-001	-9,55648E-001	1,61812E-004	..........a	-327,61
	858	2156,09	-9,55650E-001	-9,55646E-001	1,54618E-004	..........a	-327,61
	861	2163,62	-9,55645E-001	-9,55639E-001	1,64532E-004	..........a	-327,61
	864	2171,15	-9,55640E-001	-9,55634E-001	1,63085E-004	..........a	-327,61
	867	2178,68	-9,55635E-001	-9,55633E-001	1,65365E-004	..........a	-327,61
	870	2186,21	-9,55631E-001	-9,55625E-001	1,65692E-004	..........a	-327,61
	873	2193,74	-9,55625E-001	-9,55620E-001	1,59592E-004	..........a	-327,61
	876	2201,27	-9,55619E-001	-9,55606E-001	1,60158E-004	..........a	-327,61
	879	2208,8	-9,55609E-001	-9,55607E-001	1,63205E-004	..........a	-327,61
	882	2216,33	-9,55605E-001	-9,55603E-001	1,66678E-004	..........a	-327,61
	885	2223,86	-9,55601E-001	-9,55587E-001	1,69845E-004	..........a	-327,61
	888	2231,39	-9,55589E-001	-9,55579E-001	1,68665E-004	..........a	-327,61
	891	2238,92	-9,55581E-001	-9,55574E-001	1,68292E-004	..........a	-327,61
	894	2246,45	-9,55575E-001	-9,55571E-001	1,69265E-004	..........a	-327,61
	897	2253,98	-9,55571E-001	-9,55570E-001	1,70498E-004	..........a	-327,61
	900	2261,51	-9,55569E-001	-9,55562E-001	1,69545E-004	..........a	-327,61
	903	2269,04	-9,55562E-001	-9,55555E-001	1,66872E-004	..........a	-327,61
	906	2276,57	-9,55557E-001	-9,55556E-001	1,73712E-004	..........a	-327,61
	909	2284,1	-9,55554E-001	-9,55548E-001	1,65645E-004	..........a	-327,61
	912	2291,63	-9,55550E-001	-9,55588E-001	1,70025E-004	..........a	-327,61
	915	2299,16	-9,55575E-001	-9,55588E-001	1,73158E-004	..........a	-327,61
	918	2306,69	-9,55589E-001	-9,55589E-001	1,67732E-004	..........a	-327,61
	921	2314,22	-9,55585E-001	-9,55578E-001	1,67725E-004	..........a	-327,61
	924	2321,75	-9,55579E-001	-9,55574E-001	1,67345E-004	..........a	-327,61
	927	2329,28	-9,55573E-001	-9,55577E-001	1,68005E-004	..........a	-327,61
	930	2336,81	-9,55573E-001	-9,55564E-001	1,67505E-004	..........a	-327,61
	933	2344,34	-9,55564E-001	-9,55543E-001	1,70105E-004	..........a	-327,61
	936	2351,87	-9,55544E-001	-9,55523E-001	1,73138E-004	..........a	-327,61
	939	2359,4	-9,55524E-001	-9,55506E-001	1,79078E-004	..........a	-327,61
	942	2366,93	-9,55507E-001	-9,55501E-001	1,74585E-004	..........a	-327,61
	945	2374,46	-9,55499E-001	-9,55494E-001	1,74005E-004	..........a	-327,61
	948	2381,99	-9,55494E-001	-9,55485E-001	1,76745E-004	..........a	-327,61
	951	2389,52	-9,55486E-001	-9,55479E-001	1,79972E-004	..........a	-327,61
	954	2397,05	-9,55479E-001	-9,55469E-001	1,73292E-004	..........a	-327,61
	957	2404,58	-9,55471E-001	-9,55466E-001	1,78165E-004	..........a	-327,61
	960	2412,11	-9,55467E-001	-9,55459E-001	1,73918E-004	..........a	-327,61
	963	2419,64	-9,55460E-001	-9,55449E-001	1,77832E-004	..........a	-327,61
	966	2427,17	-9,55451E-001	-9,55437E-001	1,76598E-004	..........a	-327,61
	969	2434,7	-9,55437E-001	-9,55424E-001	1,76705E-004	..........a	-327,61
	972	2442,23	-9,55425E-001	-9,55422E-001	1,71305E-004	..........a	-327,61
	975	2449,76	-9,55420E-001	-9,55412E-001	1,74845E-004	..........a	-327,61
	978	2457,29	-9,55415E-001	-9,55407E-001	1,76618E-004	..........a	-327,61
	981	2464,82	-9,55407E-001	-9,55400E-001	1,70132E-004	..........a	-327,61
	984	2472,35	-9,55400E-001	-9,55392E-001	1,72658E-004	..........a	-327,61
	987	2479,88	-9,55393E-001	-9,55384E-001	1,65705E-004	..........a	-327,61
	990	2487,41	-9,55383E-001	-9,55379E-001	1,73345E-004	..........a	-327,61
	993	2494,94	-9,55377E-001	-9,55369E-001	1,67418E-004	..........a	-327,61
	996	2502,47	-9,55369E-001	-9,55361E-001	1,69678E-004	..........a	-327,61
	999	2510	-9,55362E-001	-9,55361E-001	1,67972E-004	..........a	-327,61
	1002	2517,53	-9,55358E-001	-9,55358E-001	1,72858E-004	..........a	-327,61
	1005	2525,06	-9,55358E-001	-9,55358E-001	1,70812E-004	..........a	-327,61
	1008	2532,59	-9,55356E-001	-9,55352E-001	1,68952E-004	..........a	-327,61
	1011	2540,12	-9,55351E-001	-9,55351E-001	1,68512E-004	..........a	-327,61
	1014	2547,65	-9,55351E-001	-9,55349E-001	1,74892E-004	..........a	-327,61
	1017	2555,18	-9,55351E-001	-9,55354E-001	1,60918E-004	..........a	-327,61
	1020	2562,71	-9,55354E-001	-9,55357E-001	1,63352E-004	..........a	-327,61
	1023	2570,24	-9,55355E-001	-9,55348E-001	1,64165E-004	..........a	-327,61
	1026	2577,77	-9,55348E-001	-9,55344E-001	1,63832E-004	..........a	-327,61
	1029	2585,3	-9,55354E-001	-9,55380E-001	1,66985E-004	..........a	-327,61
	1032	2592,83	-9,55377E-001	-9,55379E-001	1,68258E-004	..........a	-327,61
	1035	2600,36	-9,55378E-001	-9,55372E-001	1,76592E-004	..........a	-327,61
	1038	2607,89	-9,55372E-001	-9,55373E-001	1,67405E-004	..........a	-327,61
	1041	2615,42	-9,55368E-001	-9,55360E-001	1,73558E-004	..........a	-327,61
	1044	2622,95	-9,55357E-001	-9,55344E-001	1,72972E-004	..........a	-327,61
	1047	2630,48	-9,55345E-001	-9,55335E-001	1,66858E-004	..........a	-327,61
	1050	2638,01	-9,55336E-001	-9,55325E-001	1,59985E-004	..........a	-327,61
	1053	2645,54	-9,55328E-001	-9,55324E-001	1,63478E-004	..........a	-327,61
	1056	2653,07	-9,55324E-001	-9,55320E-001	1,63325E-004	..........a	-327,61
	1059	2660,6	-9,55319E-001	-9,55308E-001	1,58292E-004	..........a	-327,61
	1062	2668,13	-9,55310E-001	-9,55310E-001	1,60172E-004	..........a	-327,61
	1065	2675,66	-9,55309E-001	-9,55322E-001	1,65558E-004	..........a	-327,61
	1068	2683,19	-9,55315E-001	-9,55307E-001	1,64172E-004	..........a	-327,61
	1071	2690,72	-9,55307E-001	-9,55295E-001	1,54992E-004	..........a	-327,61
	1074	2698,25	-9,55302E-001	-9,55350E-001	1,59145E-004	..........a	-327,61
	1077	2705,78	-9,55338E-001	-9,55341E-001	1,64112E-004	..........a	-327,61
	1080	2713,31	-9,55340E-001	-9,55322E-001	1,51158E-004	..........a	-327,61
	1083	2720,84	-9,55324E-001	-9,55317E-001	1,52952E-004	..........a	-327,61
	1086	2728,37	-9,55316E-001	-9,55308E-001	1,58292E-004	..........a	-327,61
	1089	2735,9	-9,55308E-001	-9,55309E-001	1,58512E-004	..........a	-327,61
	1092	2743,43	-9,55304E-001	-9,55297E-001	1,59945E-004	..........a	-327,61
	1095	2750,96	-9,55297E-001	-9,55290E-001	1,57405E-004	..........a	-327,61
	1098	2758,49	-9,55290E-001	-9,55284E-001	1,55518E-004	..........a	-327,61
	1101	2766,02	-9,55281E-001	-9,55271E-001	1,60998E-004	..........a	-327,61
	1104	2773,55	-9,55271E-001	-9,55263E-001	1,55525E-004	..........a	-327,61
	1107	2781,08	-9,55262E-001	-9,55251E-001	1,57658E-004	..........a	-327,61
	1110	2788,61	-9,55253E-001	-9,55244E-001	1,56925E-004	..........a	-327,61
	1113	2796,14	-9,55245E-001	-9,55241E-001	1,55732E-004	..........a	-327,61
	1116	2803,67	-9,55242E-001	-9,55235E-001	1,49412E-004	..........a	-327,61
	1119	2811,2	-9,55236E-001	-9,55226E-001	1,45832E-004	..........a	-327,61
	1122	2818,73	-9,55227E-001	-9,55215E-001	1,40785E-004	..........a	-327,61
	1125	2826,26	-9,55217E-001	-9,55210E-001	1,42518E-004	..........a	-327,61
	1128	2833,79	-9,55210E-001	-9,55203E-001	1,51718E-004	..........a	-327,61
	1131	2841,32	-9,55203E-001	-9,55191E-001	1,51352E-004	..........a	-327,61
	1134	2848,85	-9,55195E-001	-9,55192E-001	1,45572E-004	..........a	-327,61
	1137	2856,38	-9,55193E-001	-9,55191E-001	1,45858E-004	..........a	-327,61
	1140	2863,91	-9,55189E-001	-9,55183E-001	1,42645E-004	..........a	-327,61
	1143	2871,44	-9,55184E-001	-9,55178E-001	1,46892E-004	..........a	-327,61
	1146	2878,97	-9,55179E-001	-9,55175E-001	1,37752E-004	..........a	-327,61
	1149	2886,5	-9,55172E-001	-9,55169E-001	1,44698E-004	..........a	-327,61
	1152	2894,03	-9,55169E-001	-9,55161E-001	1,46412E-004	..........a	-327,61
	1155	2901,56	-9,55164E-001	-9,55162E-001	1,41732E-004	..........a	-327,61
	1158	2909,09	-9,55159E-001	-9,55149E-001	1,43465E-004	..........a	-327,61
	1161	2916,62	-9,55150E-001	-9,55139E-001	1,38225E-004	..........a	-327,61
	1164	2924,15	-9,55142E-001	-9,55139E-001	1,38198E-004	..........a	-327,61
	1167	2931,68	-9,55140E-001	-9,55131E-001	1,41392E-004	..........a	-327,61
	1170	2939,21	-9,55133E-001	-9,55125E-001	1,34752E-004	..........a	-327,61
	1173	2946,74	-9,55126E-001	-9,55121E-001	1,36818E-004	..........a	-327,61
	1176	2954,27	-9,55122E-001	-9,55118E-001	1,31632E-004	..........a	-327,61
	1179	2961,8	-9,55119E-001	-9,55118E-001	1,31012E-004	..........a	-327,61
	1182	2969,33	-9,55118E-001	-9,55114E-001	1,39572E-004	..........a	-327,61
	1185	2976,86	-9,55114E-001	-9,55106E-001	1,33632E-004	..........a	-327,61
	1188	2984,39	-9,55108E-001	-9,55105E-001	1,39365E-004	..........a	-327,61
	1191	2991,92	-9,55104E-001	-9,55099E-001	1,35418E-004	..........a	-327,61
	1194	2999,45	-9,55100E-001	-9,55092E-001	1,39118E-004	..........a	-327,61
	1197	3006,98	-9,55092E-001	-9,55088E-001	1,30385E-004	..........a	-327,61
	1200	3014,51	-9,55088E-001	-9,55097E-001	1,40378E-004	..........a	-327,61
	1203	3022,04	-9,55099E-001	-9,55117E-001	1,41365E-004	..........a	-327,61
	1206	3029,57	-9,55113E-001	-9,55108E-001	1,38985E-004	..........a	-327,61
	1209	3037,1	-9,55108E-001	-9,55097E-001	1,35905E-004	..........a	-327,61
	1212	3044,63	-9,55097E-001	-9,55087E-001	1,32918E-004	..........a	-327,61
	1215	3052,16	-9,55089E-001	-9,55086E-001	1,35932E-004	..........a	-327,61
	1218	3059,69	-9,55085E-001	-9,55078E-001	1,34245E-004	..........a	-327,61
	1221	3067,22	-9,55078E-001	-9,55065E-001	1,31945E-004	..........a	-327,61
	1224	3074,75	-9,55070E-001	-9,55068E-001	1,31712E-004	..........a	-327,61
	1227	3082,28	-9,55067E-001	-9,55068E-001	1,32038E-004	..........a	-327,61
	1230	3089,81	-9,55065E-001	-9,55058E-001	1,25105E-004	..........a	-327,61
	1233	3097,34	-9,55058E-001	-9,55051E-001	1,34792E-004	..........a	-327,61
	1236	3104,87	-9,55049E-001	-9,55044E-001	1,32018E-004	..........a	-327,61
	1239	3112,4	-9,55043E-001	-9,55032E-001	1,32818E-004	..........a	-327,61
	1242	3119,93	-9,55034E-001	-9,55028E-001	1,34125E-004	..........a	-327,61
	1245	3127,46	-9,55027E-001	-9,55021E-001	1,36792E-004	..........a	-327,61
	1248	3134,99	-9,55019E-001	-9,55014E-001	1,32985E-004	..........a	-327,61
	1251	3142,52	-9,55014E-001	-9,55010E-001	1,34698E-004	..........a	-327,61
	1254	3150,05	-9,55009E-001	-9,55004E-001	1,28805E-004	..........a	-327,61
	1257	3157,58	-9,55003E-001	-9,54993E-001	1,29578E-004	..........a	-327,61
	1260	3165,11	-9,54995E-001	-9,54991E-001	1,31585E-004	..........a	-327,61
	1263	3172,64	-9,54990E-001	-9,54988E-001	1,35158E-004	..........a	-327,61
	1266	3180,17	-9,54987E-001	-9,54982E-001	1,33418E-004	..........a	-327,61
	1269	3187,7	-9,54982E-001	-9,54975E-001	1,39285E-004	..........a	-327,61
	1272	3195,23	-9,54977E-001	-9,54978E-001	1,34705E-004	..........a	-327,61
	1275	3202,76	-9,54975E-001	-9,54964E-001	1,32792E-004	..........a	-327,61
	1278	3210,29	-9,54965E-001	-9,54958E-001	1,37192E-004	..........a	-327,61
	1281	3217,82	-9,54957E-001	-9,54949E-001	1,46025E-004	..........a	-327,61
	1284	3225,35	-9,54949E-001	-9,54947E-001	1,40992E-004	..........a	-327,61
	1287	3232,88	-9,54947E-001	-9,54944E-001	1,34385E-004	..........a	-327,61
	1290	3240,41	-9,54941E-001	-9,54929E-001	1,36318E-004	..........a	-327,61
	1293	3247,94	-9,54931E-001	-9,54928E-001	1,39232E-004	..........a	-327,61
	1296	3255,47	-9,54926E-001	-9,54928E-001	1,40732E-004	..........a	-327,61
	1299	3263	-9,54926E-001	-9,54931E-001	1,36292E-004	..........a	-327,61
	1302	3270,53	-9,54928E-001	-9,54927E-001	1,41812E-004	..........a	-327,61
	1305	3278,06	-9,54927E-001	-9,54918E-001	1,33585E-004	..........a	-327,61
	1308	3285,59	-9,54918E-001	-9,54907E-001	1,37178E-004	..........a	-327,61
	1311	3293,12	-9,54910E-001	-9,54907E-001	1,35292E-004	..........a	-327,61
	1314	3300,65	-9,54906E-001	-9,54893E-001	1,38592E-004	..........a	-327,61
	1317	3308,18	-9,54897E-001	-9,54891E-001	1,37425E-004	..........a	-327,61
	1320	3315,71	-9,54892E-001	-9,54888E-001	1,35092E-004	..........a	-327,61
	1323	3323,24	-9,54890E-001	-9,54875E-001	1,35692E-004	..........a	-327,61
	1326	3330,77	-9,54880E-001	-9,54872E-001	1,40958E-004	..........a	-327,61
	1329	3338,3	-9,54871E-001	-9,54856E-001	1,38525E-004	..........a	-327,61
	1332	3345,83	-9,54857E-001	-9,54843E-001	1,46105E-004	..........a	-327,61
	1335	3353,36	-9,54843E-001	-9,54833E-001	1,41578E-004	..........a	-327,61
	1338	3360,89	-9,54833E-001	-9,54827E-001	1,45825E-004	..........a	-327,61
	1341	3368,42	-9,54828E-001	-9,54821E-001	1,43052E-004	..........a	-327,61
	1344	3375,95	-9,54823E-001	-9,54814E-001	1,37292E-004	..........a	-327,61
	1347	3383,48	-9,54816E-001	-9,54809E-001	1,45678E-004	..........a	-327,61
	1350	3391,01	-9,54811E-001	-9,54805E-001	1,47245E-004	..........a	-327,61
	1353	3398,54	-9,54805E-001	-9,54794E-001	1,45965E-004	..........a	-327,61
	1356	3406,07	-9,54796E-001	-9,54789E-001	1,41072E-004	..........a	-327,61
	1359	3413,6	-9,54791E-001	-9,54786E-001	1,42872E-004	..........a	-327,61
	1362	3421,13	-9,54788E-001	-9,54788E-001	1,44158E-004	..........a	-327,61
	1365	3428,66	-9,54791E-001	-9,54802E-001	1,38278E-004	..........a	-327,61
	1368	3436,19	-9,54799E-001	-9,54795E-001	1,45498E-004	..........a	-327,61
	1371	3443,72	-9,54794E-001	-9,54782E-001	1,45445E-004	..........a	-327,61
	1374	3451,25	-9,54782E-001	-9,54769E-001	1,41725E-004	..........a	-327,61
	1377	3458,78	-9,54769E-001	-9,54754E-001	1,42945E-004	..........a	-327,61
	1380	3466,31	-9,54756E-001	-9,54756E-001	1,45185E-004	..........a	-327,61
	1383	3473,84	-9,54755E-001	-9,54751E-001	1,49505E-004	..........a	-327,61
	1386	3481,37	-9,54750E-001	-9,54744E-001	1,41892E-004	..........a	-327,61
	1389	3488,9	-9,54743E-001	-9,54736E-001	1,40612E-004	..........a	-327,61
	1392	3496,43	-9,54736E-001	-9,54731E-001	1,41918E-004	..........a	-327,61
	1395	3503,96	-9,54732E-001	-9,54724E-001	1,38692E-004	..........a	-327,61
	1398	3511,49	-9,54724E-001	-9,54717E-001	1,37045E-004	..........a	-327,61
	1401	3519,02	-9,54714E-001	-9,54706E-001	1,32165E-004	..........a	-327,61
	1404	3526,55	-9,54706E-001	-9,54702E-001	1,38398E-004	..........a	-327,61
	1407	3534,08	-9,54702E-001	-9,54696E-001	1,34838E-004	..........a	-327,61
	1410	3541,61	-9,54695E-001	-9,54687E-001	1,37018E-004	..........a	-327,61
	1413	3549,14	-9,54688E-001	-9,54681E-001	1,31118E-004	..........a	-327,61
	1416	3556,67	-9,54684E-001	-9,54679E-001	1,25472E-004	..........a	-327,61
	1419	3564,2	-9,54683E-001	-9,54680E-001	1,28712E-004	..........a	-327,61
	1422	3571,73	-9,54683E-001	-9,54683E-001	1,27598E-004	..........a	-327,61
	1425	3579,26	-9,54679E-001	-9,54673E-001	1,32625E-004	..........a	-327,61
	1428	3586,79	-9,54672E-001	-9,54663E-001	1,31805E-004	..........a	-327,61
	1431	3594,32	-9,54664E-001	-9,54657E-001	1,31852E-004	..........a	-327,61
	1433	3599,34	-9,54660E-001	-9,54648E-001	1,33278E-004	..........a	-327,61
EOC	QUANT	-0,95466	Open Circuit (V)
PSTATMODEL	IQUANT	5	Pstat Model
PSTATSECTION	LABEL	REF3000-34126	Pstat Section
PSTATSERIALNO	LABEL	34126	Pstat Serial Number
CTRLMODE	IQUANT	1	Control Mode
ELECTROMETER	IQUANT	0	RE=0 or CS=1
IESTAB	IQUANT	0	I/E Stability
CASPEED	IQUANT	3	Control Amp Speed
CONVENTION	IQUANT	1	Current Convention
ICHRANGE	IQUANT	2	Ich Range
ICHRANGEMODE	TOGGLE	F	Ich Auto Range
ICHOFFSETENABLE	TOGGLE	T	Ich Offset Enable
ICHOFFSET	QUANT	0	Ich Offset (V)
ICHFILTER	IQUANT	3	Ich Filter
VCHRANGE	IQUANT	2	Vch Range
VCHRANGEMODE	TOGGLE	F	Vch Auto Range
VCHOFFSETENABLE	TOGGLE	T	Vch Offset Enable
VCHOFFSET	QUANT	0	Vch Offset (V)
VCHFILTER	IQUANT	3	Vch Filter
ACHRANGE	IQUANT	2	Ach Range
ACHOFFSETENABLE	TOGGLE	F	Ach Offset Enable
ACHOFFSET	QUANT	0	Ach Offset (V)
ACHFILTER	IQUANT	1	Ach Filter
IERANGELOWERLIMIT	IQUANT	2	I/E Range Lower Limit
IERANGEMODE	TOGGLE	F	I/E AutoRange
IERANGE	IQUANT	12	I/E Range
POSFEEDENABLE	TOGGLE	F	Positive Feedback IR Comp
POSFEEDRESISTANCE	QUANT	0	Positive Feedback Resistance (ohm)
ACHSELECT	IQUANT	0	Ach Select
SENSECABLEID	IQUANT	14	Sense Cable ID
PWRCABLEID	IQUANT	7	Power Cable ID
DCCALDATE	LABEL	5/15/2019	DC Calibration Date
ACCALDATE	LABEL	5/15/2019	AC Calibration Date
THERMOSELECT	IQUANT	1	Thermo Select
FRAMEWORKVERSION	QUANT	7,06	Framework Version
INSTRUMENTVERSION	LABEL	4.30	Instrument Version
COMPLIANCEVOLTAGE	IQUANT	0	Compliance Voltage
ZCURVE	TABLE
	Pt	Time	Freq	Zreal	Zimag	Zsig	Zmod	Zphz	Idc	Vdc	IERange
	#	s	Hz	ohm	ohm	V	ohm		A	V	#
	0	1	50015,62	167,4209	-14,48175	1	168,0461	-4,943725	1,036861E-007	-0,953244	8
	1	2	39796,87	168,0418	-17,34505	1	168,9346	-5,893124	1,391055E-007	-0,953239	8
	2	4	31640,63	168,8137	-20,90406	1	170,1031	-7,058955	1,272002E-007	-0,953241	8
	3	5	25078,13	169,7685	-25,35627	1	171,6516	-8,494785	9,615556E-008	-0,95314	8
	4	7	19921,88	170,9454	-30,85065	1	173,7069	-10,2301	1,111156E-007	-0,953238	8
	5	8	15890,62	172,4532	-37,42575	1	176,4675	-12,24445	1,08803E-007	-0,953223	8
	6	10	12609,37	174,3279	-45,66166	1	180,2088	-14,67773	1,753999E-007	-0,953205	8
	7	11	9984,37	176,6792	-55,81081	1	185,2846	-17,53069	8,052461E-008	-0,953148	8
	8	13	7858,456	179,7881	-68,66045	1	192,4526	-20,90169	1,357853E-007	-0,953235	8
	9	15	6328,125	183,314	-82,81915	1	201,1543	-24,3129	1,294975E-007	-0,953233	8
	10	16	5015,625	188,2042	-101,1803	1	213,6779	-28,26288	1,639119E-007	-0,953205	8
	11	18	3984,375	194,3929	-123,3204	1	230,2097	-32,39053	7,105621E-008	-0,953247	8
	12	19	3170,956	202,4012	-149,786	1	251,7978	-36,50311	1,03811E-007	-0,953144	8
	13	21	2527,573	212,679	-181,3853	1	279,5228	-40,4595	9,088257E-008	-0,953318	8
	14	23	1976,103	227,4068	-222,5497	1	318,1858	-44,38153	1,713445E-007	-0,953196	8
	15	24	1577,524	244,825	-267,6109	1	362,7049	-47,54603	8,69526E-008	-0,953147	8
	16	26	1265,625	266,2543	-319,3434	1	415,7783	-50,18016	1,420496E-007	-0,953213	8
	17	28	998,264	296,0238	-384,7236	1	485,43	-52,42368	1,591044E-007	-0,953241	8
	18	29	796,875	332,7258	-457,5029	1	565,699	-53,97292	1,386375E-007	-0,953237	8
	19	31	627,7902	380,5677	-546,7926	1	666,1936	-55,16208	8,732091E-008	-0,953245	8
	20	32	495,7933	440,3052	-648,0401	1	783,4697	-55,80619	1,04204E-007	-0,953223	8
	21	34	397,9953	509,138	-755,5266	1	911,0664	-56,02456	1,037032E-007	-0,953205	7
	22	35	315,5048	598,6015	-883,2221	1	1066,961	-55,87265	1,064977E-007	-0,953205	7
	23	37	252,4038	703,0814	-1020,15	1	1238,963	-55,42561	1,112238E-007	-0,953202	7
	24	38	198,6229	838,5304	-1182,704	1	1449,8	-54,66357	1,156214E-007	-0,953204	7
	25	40	158,3615	991,962	-1350,84	1	1675,935	-53,70906	1,17407E-007	-0,953199	7
	26	42	125,558	1177,832	-1537,047	1	1936,441	-52,53721	1,230092E-007	-0,953203	7
	27	43	100,4464	1386,8	-1728,203	1	2215,829	-51,25462	1,286346E-007	-0,953203	7
	28	45	79,00281	1647,608	-1945,51	1	2549,436	-49,73951	1,327845E-007	-0,953199	7
	29	47	62,77901	1936,074	-2161,928	1	2902,122	-48,15456	1,407152E-007	-0,9532	7
	30	48	45,07212	2422,115	-2483,15	1	3468,814	-45,71288	1,459242E-007	-0,953206	7
	31	50	38,42213	2689,29	-2639,448	1	3768,151	-44,4641	1,519772E-007	-0,953207	7
	32	51	31,25	3064,2	-2836,201	1	4175,327	-42,78712	1,549514E-007	-0,953201	7
	33	53	24,93351	3518,948	-3046,325	1	4654,362	-40,88248	1,550295E-007	-0,953201	7
	34	54	19,86229	4007,398	-3240,416	1	5153,594	-38,95929	1,715776E-007	-0,953123	7
	35	56	15,625	4580,254	-3421,478	1	5717,101	-36,75996	1,481789E-007	-0,953119	7
	36	57	12,40079	5168,808	-3557,092	1	6274,51	-34,53513	1,429222E-007	-0,953119	7
	37	59	9,93114	5758,828	-3650,852	1	6818,564	-32,37296	1,435735E-007	-0,953115	7
	38	60	7,944915	6373,203	-3699,822	1	7369,288	-30,13636	1,418502E-007	-0,953116	7
	39	62	6,317385	7003,943	-3700,738	1	7921,532	-27,85104	1,417841E-007	-0,953118	7
	40	64	5,008013	7636,801	-3644,724	1	8461,959	-25,51318	1,360231E-007	-0,953103	6
	41	67	3,945707	8255,371	-3545,703	1	8984,607	-23,24365	1,344626E-007	-0,953105	6
	42	70	3,158693	8796,479	-3410,153	1	9434,361	-21,18994	1,335354E-007	-0,953104	6
	43	74	2,504006	9321,779	-3241,16	1	9869,18	-19,17244	1,31599E-007	-0,953108	6
	44	79	1,998082	9767,32	-3083,083	1	10242,36	-17,51845	1,352998E-007	-0,953109	6
	45	84	1,584686	10186,92	-2904,537	1	10592,9	-15,91413	1,301635E-007	-0,953104	6
	46	90	1,266892	10536,66	-2746,752	1	10888,79	-14,61099	1,279713E-007	-0,953103	6
	47	98	0,999041	10865,41	-2605,691	1	11173,48	-13,48573	1,265506E-007	-0,953104	6
	48	104	0,7944915	11142,99	-2514,329	1	11423,14	-12,7154	1,247321E-007	-0,953102	6
	49	112	0,633446	11371,59	-2460,216	1	11634,68	-12,20766	1,261779E-007	-0,953098	6
	50	121	0,5040323	11605,92	-2464,733	1	11864,75	-11,98969	1,240378E-007	-0,9531	6
	51	132	0,3972458	11813,5	-2524,488	1	12080,22	-12,06241	1,262785E-007	-0,953099	6
	52	146	0,316723	12038,51	-2643,495	1	12325,33	-12,38482	1,25121E-007	-0,953099	6
	53	163	0,2506685	12272,06	-2835,674	1	12595,42	-13,01084	1,245473E-007	-0,953101	6
	54	185	0,1994681	12528,21	-3089,086	1	12903,43	-13,85116	1,245032E-007	-0,9531	6
	55	211	0,1583615	12828,61	-3410,921	1	13274,32	-14,88954	1,258467E-007	-0,953102	6
	56	242	0,1256702	13173,73	-3790,95	1	13708,34	-16,05401	1,283213E-007	-0,9531	6
	57	280	0,0999467	13630,29	-4219,714	1	14268,52	-17,20167	1,263635E-007	-0,953103	6
	58	322	0,0793147	14233,17	-4661,992	1	14977,23	-18,1359	1,249062E-007	-0,953099	6
	59	373	0,063004	14967,05	-5092,805	1	15809,78	-18,79179	1,223252E-007	-0,953096	6
	60	438	0,0500267	15825,78	-5407,461	1	16724,11	-18,86463	1,215553E-007	-0,953095	6
	61	520	0,0397246	16761,41	-5595,89	1	17670,85	-18,46187	1,170548E-007	-0,953086	6
	62	622	0,0315657	17717,31	-5484,023	1	18546,63	-17,19882	1,207005E-007	-0,953083	6
	63	750	0,0250668	18715,88	-5256,435	1	19440,01	-15,68763	1,149231E-007	-0,953083	6
	64	911	0,0199129	19599,16	-4885,982	1	20199,01	-13,99824	1,067175E-007	-0,953081	6
	65	1113	0,0158148	20272,14	-4335,049	1	20730,46	-12,07049	9,774139E-008	-0,953073	6
	66	1367	0,0125603	20944	-3617,167	1	21254,05	-9,7987	7,241955E-008	-0,953058	6
	67	1687	0,0099776	20700,29	-2554,642	1	20857,33	-7,035352	9,625984E-008	-0,953061	6