File: inst/extdata/PD_Framework_version4_3.dta
EXPLAIN
TAG	POTENTIODYNAMIC
TITLE	LABEL	Potentiodynamic Scan	Test &Identifier
DATE	LABEL	6/24/2004	Date
TIME	LABEL	10:37:28	Time
NOTES	NOTES	2	&Notes...
	430 Stainless Steel
	Deaerated 1 N H2S04
PSTAT	PSTAT	PCI4/750	Potentiostat
VINIT	POTEN	-2.00000E-002	T	Initial &E (V)
VFINAL	POTEN	1.60000E+000	F	Final &E (V)
SCANRATE	QUANT	1.67000E-001	Scan Ra&te (mV/s)
SAMPLETIME	QUANT	5.00000E+000	Sa&mple Period (s)
AREA	QUANT	5.00000E+000	Sample &Area (cm^2)
DENSITY	QUANT	7.87000E+000	Densit&y (gm/cm^3)
EQUIV	QUANT	2.79200E+001	Equiv. &Wt
CONDIT	TWOPARAM	F	1.50000E+001	0.00000E+000	Conditionin&g	Time(s)	E(V)
DELAY	TWOPARAM	T	3.00000E+002	0.00000E+000	Init. De&lay	Time(s)	Stab.(mV/s)
IRCOMP	TOGGLE	F	IR Com&p
OCVCURVE	TABLE	1161
	Pt	T	Vf	Vm	Ach	Over
	#	s	V vs. Ref.	V	V	bits
	0	0.258332	-5.13318E-001	1.60015E+000	2.60800E-004	......
	2	0.774994	-5.13368E-001	1.60015E+000	1.60800E-004	......
	4	1.29166	-5.13418E-001	1.60015E+000	2.60800E-004	......
	6	1.80832	-5.13318E-001	1.60015E+000	1.60800E-004	......
	8	2.32498	-5.13268E-001	1.60015E+000	1.60800E-004	......
	10	2.84165	-5.13318E-001	1.60015E+000	6.08000E-005	......
	12	3.35831	-5.13268E-001	1.60015E+000	1.60800E-004	......
	14	3.87497	-5.13368E-001	1.60015E+000	1.60800E-004	......
	16	4.39164	-5.13318E-001	1.60015E+000	1.60800E-004	......
	18	4.9083	-5.13368E-001	1.60015E+000	1.60800E-004	......
	20	5.42496	-5.13318E-001	1.60015E+000	1.60800E-004	......
	22	5.94162	-5.13318E-001	1.60015E+000	6.08000E-005	......
	24	6.45829	-5.13318E-001	1.60015E+000	6.08000E-005	......
	26	6.97495	-5.13368E-001	1.60015E+000	6.08000E-005	......
	28	7.49161	-5.13318E-001	1.60015E+000	1.60800E-004	......
	30	8.00828	-5.13368E-001	1.60015E+000	2.60800E-004	......
	32	8.52494	-5.13368E-001	1.60015E+000	2.60800E-004	......
	34	9.0416	-5.13368E-001	1.60015E+000	2.60800E-004	......
	36	9.5583	-5.13218E-001	1.60015E+000	2.60800E-004	......
	38	10.0749	-5.13368E-001	1.60015E+000	2.60800E-004	......
	40	10.5916	-5.13368E-001	1.60015E+000	1.60800E-004	......
	42	11.1083	-5.13318E-001	1.60015E+000	1.60800E-004	......
	44	11.6249	-5.13368E-001	1.60015E+000	2.60800E-004	......
	46	12.1416	-5.13268E-001	1.60015E+000	6.08000E-005	......
	48	12.6582	-5.13268E-001	1.60015E+000	1.60800E-004	......
	50	13.1749	-5.13368E-001	1.60015E+000	1.60800E-004	......
	52	13.6916	-5.13268E-001	1.60015E+000	6.08000E-005	......
	54	14.2082	-5.13268E-001	1.60015E+000	1.60800E-004	......
	56	14.7249	-5.13268E-001	1.60015E+000	6.08000E-005	......
	58	15.2416	-5.13368E-001	1.60015E+000	1.60800E-004	......
	60	15.7582	-5.13318E-001	1.60015E+000	1.60800E-004	......
	62	16.2749	-5.13268E-001	1.60015E+000	6.08000E-005	......
	64	16.7915	-5.13218E-001	1.60015E+000	6.08000E-005	......
	66	17.3082	-5.13318E-001	1.60015E+000	1.60800E-004	......
	68	17.8249	-5.13318E-001	1.60015E+000	6.08000E-005	......
	70	18.3415	-5.13268E-001	1.60015E+000	1.60800E-004	......
	72	18.8582	-5.13368E-001	1.60015E+000	6.08000E-005	......
	74	19.3749	-5.13268E-001	1.60015E+000	1.60800E-004	......
	76	19.8915	-5.13268E-001	1.60015E+000	2.60800E-004	......
	78	20.4082	-5.13318E-001	1.60015E+000	1.60800E-004	......
	80	20.9249	-5.13268E-001	1.60015E+000	6.08000E-005	......
	82	21.4415	-5.13268E-001	1.60015E+000	1.60800E-004	......
	84	21.9582	-5.13218E-001	1.60015E+000	6.08000E-005	......
	86	22.4748	-5.13268E-001	1.60015E+000	-3.92000E-005	......
	88	22.9915	-5.13268E-001	1.60015E+000	1.60800E-004	......
	90	23.5082	-5.13268E-001	1.60015E+000	1.60800E-004	......
	92	24.0248	-5.13268E-001	1.60015E+000	2.60800E-004	......
	94	24.5415	-5.13268E-001	1.60015E+000	1.60800E-004	......
	96	25.0582	-5.13268E-001	1.60015E+000	1.60800E-004	......
	98	25.5748	-5.13318E-001	1.60015E+000	1.60800E-004	......
	100	26.0915	-5.13268E-001	1.60015E+000	1.60800E-004	......
	102	26.6081	-5.13268E-001	1.60015E+000	6.08000E-005	......
	104	27.1248	-5.13268E-001	1.60015E+000	2.60800E-004	......
	106	27.6415	-5.13268E-001	1.60015E+000	1.60800E-004	......
	108	28.1581	-5.13268E-001	1.60015E+000	6.08000E-005	......
	110	28.6748	-5.13268E-001	1.60015E+000	2.60800E-004	......
	112	29.1915	-5.13268E-001	1.60015E+000	1.60800E-004	......
	114	29.7081	-5.13318E-001	1.60015E+000	2.60800E-004	......
	116	30.2248	-5.13318E-001	1.60015E+000	1.60800E-004	......
	118	30.7414	-5.13268E-001	1.60015E+000	1.60800E-004	......
	120	31.2581	-5.13368E-001	1.60015E+000	2.60800E-004	......
	122	31.7748	-5.13268E-001	1.60015E+000	1.60800E-004	......
	124	32.2914	-5.13268E-001	1.60015E+000	6.08000E-005	......
	126	32.8081	-5.13268E-001	1.60015E+000	1.60800E-004	......
	128	33.3248	-5.13318E-001	1.60015E+000	2.60800E-004	......
	130	33.8414	-5.13268E-001	1.60015E+000	6.08000E-005	......
	132	34.3581	-5.13218E-001	1.60015E+000	1.60800E-004	......
	134	34.8748	-5.13268E-001	1.60015E+000	1.60800E-004	......
	136	35.3914	-5.13268E-001	1.60015E+000	6.08000E-005	......
	138	35.9081	-5.13268E-001	1.60015E+000	1.60800E-004	......
	140	36.4247	-5.13268E-001	1.60015E+000	1.60800E-004	......
	142	36.9414	-5.13268E-001	1.60015E+000	3.60800E-004	......
	144	37.4581	-5.13318E-001	1.60015E+000	2.60800E-004	......
	146	37.9747	-5.13318E-001	1.60015E+000	6.08000E-005	......
	148	38.4914	-5.13318E-001	1.60015E+000	6.08000E-005	......
	150	39.0081	-5.13219E-001	1.60015E+000	2.60800E-004	......
	152	39.5247	-5.13219E-001	1.60015E+000	1.60800E-004	......
	154	40.0414	-5.13318E-001	1.60015E+000	6.08000E-005	......
	156	40.558	-5.13318E-001	1.60015E+000	1.60800E-004	......
	158	41.0747	-5.13268E-001	1.60015E+000	2.60800E-004	......
	160	41.5914	-5.13219E-001	1.60015E+000	1.60800E-004	......
	162	42.108	-5.13318E-001	1.60015E+000	2.60800E-004	......
	164	42.6247	-5.13268E-001	1.60015E+000	2.60800E-004	......
	166	43.1414	-5.13268E-001	1.60015E+000	1.60800E-004	......
	168	43.658	-5.13268E-001	1.60015E+000	2.60800E-004	......
	170	44.1747	-5.13268E-001	1.60015E+000	1.60800E-004	......
	172	44.6913	-5.13218E-001	1.60015E+000	1.60800E-004	......
	174	45.208	-5.13268E-001	1.60015E+000	6.08000E-005	......
	176	45.7247	-5.13218E-001	1.60015E+000	1.60800E-004	......
	178	46.2413	-5.13318E-001	1.60015E+000	6.08000E-005	......
	180	46.758	-5.13268E-001	1.60015E+000	6.08000E-005	......
	182	47.2747	-5.13268E-001	1.60015E+000	2.60800E-004	......
	184	47.7913	-5.13268E-001	1.60015E+000	6.08000E-005	......
	186	48.308	-5.13218E-001	1.60015E+000	2.60800E-004	......
	188	48.8247	-5.13368E-001	1.60015E+000	2.60800E-004	......
	190	49.3413	-5.13318E-001	1.60015E+000	1.60800E-004	......
	192	49.858	-5.13268E-001	1.60015E+000	1.60800E-004	......
	194	50.3746	-5.13268E-001	1.60015E+000	1.60800E-004	......
	196	50.8913	-5.13318E-001	1.60015E+000	-3.92000E-005	......
	198	51.408	-5.13268E-001	1.60015E+000	6.08000E-005	......
	200	51.9246	-5.13218E-001	1.60015E+000	1.60800E-004	......
	202	52.4413	-5.13268E-001	1.60015E+000	6.08000E-005	......
	204	52.958	-5.13268E-001	1.60015E+000	1.60800E-004	......
	206	53.4746	-5.13218E-001	1.60015E+000	1.60800E-004	......
	208	53.9913	-5.13218E-001	1.60015E+000	1.60800E-004	......
	210	54.5079	-5.13318E-001	1.60015E+000	6.08000E-005	......
	212	55.0246	-5.13268E-001	1.60015E+000	1.60800E-004	......
	214	55.5413	-5.13268E-001	1.60015E+000	1.60800E-004	......
	216	56.0579	-5.13268E-001	1.60015E+000	6.08000E-005	......
	218	56.5746	-5.13218E-001	1.60015E+000	6.08000E-005	......
	220	57.0913	-5.13268E-001	1.60015E+000	2.60800E-004	......
	222	57.6079	-5.13218E-001	1.60015E+000	6.08000E-005	......
	224	58.1246	-5.13268E-001	1.60015E+000	1.60800E-004	......
	226	58.6413	-5.13268E-001	1.60015E+000	6.08000E-005	......
	228	59.1579	-5.13268E-001	1.60015E+000	1.60800E-004	......
	230	59.6746	-5.13268E-001	1.60015E+000	6.08000E-005	......
	232	60.1912	-5.13318E-001	1.60015E+000	1.60800E-004	......
	234	60.7079	-5.13218E-001	1.60015E+000	6.08000E-005	......
	236	61.2246	-5.13218E-001	1.60015E+000	1.60800E-004	......
	238	61.7412	-5.13219E-001	1.60015E+000	1.60800E-004	......
	240	62.2579	-5.13268E-001	1.60015E+000	1.60800E-004	......
	242	62.7746	-5.13268E-001	1.60015E+000	2.60800E-004	......
	244	63.2912	-5.13218E-001	1.60015E+000	6.08000E-005	......
	246	63.8079	-5.13219E-001	1.60015E+000	6.08000E-005	......
	248	64.3245	-5.13268E-001	1.60015E+000	1.60800E-004	......
	250	64.8412	-5.13268E-001	1.60015E+000	1.60800E-004	......
	252	65.3579	-5.13318E-001	1.60015E+000	2.60800E-004	......
	254	65.8745	-5.13169E-001	1.60015E+000	2.60800E-004	......
	256	66.3912	-5.13268E-001	1.60015E+000	6.08000E-005	......
	258	66.9079	-5.13169E-001	1.60015E+000	6.08000E-005	......
	260	67.4245	-5.13268E-001	1.60015E+000	1.60800E-004	......
	262	67.9412	-5.13169E-001	1.60015E+000	1.60800E-004	......
	264	68.4578	-5.13219E-001	1.60015E+000	1.60800E-004	......
	266	68.9745	-5.13168E-001	1.60015E+000	1.60800E-004	......
	268	69.4912	-5.13169E-001	1.60015E+000	1.60800E-004	......
	270	70.0078	-5.13268E-001	1.60015E+000	6.08000E-005	......
	272	70.5245	-5.13219E-001	1.60015E+000	2.60800E-004	......
	274	71.0412	-5.13268E-001	1.60015E+000	2.60800E-004	......
	276	71.5578	-5.13168E-001	1.60015E+000	1.60800E-004	......
	278	72.0745	-5.13268E-001	1.60015E+000	1.60800E-004	......
	280	72.5912	-5.13268E-001	1.60015E+000	1.60800E-004	......
	282	73.1078	-5.13169E-001	1.60015E+000	1.60800E-004	......
	284	73.6245	-5.13268E-001	1.60015E+000	2.60800E-004	......
	286	74.1411	-5.13268E-001	1.60015E+000	2.60800E-004	......
	288	74.6578	-5.13168E-001	1.60015E+000	1.60800E-004	......
	290	75.1745	-5.13268E-001	1.60015E+000	2.60800E-004	......
	292	75.6911	-5.13218E-001	1.60015E+000	1.60800E-004	......
	294	76.2078	-5.13169E-001	1.60015E+000	1.60800E-004	......
	296	76.7245	-5.13268E-001	1.60015E+000	2.60800E-004	......
	298	77.2411	-5.13219E-001	1.60015E+000	6.08000E-005	......
	300	77.7578	-5.13268E-001	1.60015E+000	1.60800E-004	......
	302	78.2744	-5.13218E-001	1.60015E+000	2.60800E-004	......
	304	78.7911	-5.13119E-001	1.60015E+000	1.60800E-004	......
	306	79.3078	-5.13219E-001	1.60015E+000	2.60800E-004	......
	308	79.8244	-5.13218E-001	1.60015E+000	2.60800E-004	......
	310	80.3411	-5.13218E-001	1.60015E+000	1.60800E-004	......
	312	80.8578	-5.13068E-001	1.60015E+000	6.08000E-005	......
	314	81.3744	-5.13218E-001	1.60015E+000	6.08000E-005	......
	316	81.8911	-5.13218E-001	1.60015E+000	2.60800E-004	......
	318	82.4078	-5.13218E-001	1.60015E+000	1.60800E-004	......
	320	82.9244	-5.13218E-001	1.60015E+000	1.60800E-004	......
	322	83.4411	-5.13218E-001	1.60015E+000	1.60800E-004	......
	324	83.9577	-5.13268E-001	1.60015E+000	1.60800E-004	......
	326	84.4744	-5.13169E-001	1.60015E+000	6.08000E-005	......
	328	84.9911	-5.13168E-001	1.60015E+000	1.60800E-004	......
	330	85.5077	-5.13218E-001	1.60015E+000	2.60800E-004	......
	332	86.0244	-5.13169E-001	1.60015E+000	1.60800E-004	......
	334	86.5411	-5.13119E-001	1.60015E+000	1.60800E-004	......
	336	87.0577	-5.13218E-001	1.60015E+000	1.60800E-004	......
	338	87.5744	-5.13119E-001	1.60015E+000	6.08000E-005	......
	340	88.091	-5.13169E-001	1.60015E+000	6.08000E-005	......
	342	88.6077	-5.13169E-001	1.60015E+000	1.60800E-004	......
	344	89.1244	-5.13219E-001	1.60015E+000	1.60800E-004	......
	346	89.641	-5.13268E-001	1.60015E+000	1.60800E-004	......
	348	90.1577	-5.13218E-001	1.60015E+000	1.60800E-004	......
	350	90.6744	-5.13169E-001	1.60015E+000	6.08000E-005	......
	352	91.191	-5.13219E-001	1.60015E+000	6.08000E-005	......
	354	91.7077	-5.13169E-001	1.60015E+000	6.08000E-005	......
	356	92.2243	-5.13218E-001	1.60015E+000	2.60800E-004	......
	358	92.741	-5.13219E-001	1.60015E+000	1.60800E-004	......
	360	93.2577	-5.13169E-001	1.60015E+000	6.08000E-005	......
	362	93.7743	-5.13218E-001	1.60015E+000	1.60800E-004	......
	364	94.291	-5.13119E-001	1.60015E+000	1.60800E-004	......
	366	94.8077	-5.13169E-001	1.60015E+000	1.60800E-004	......
	368	95.324	-5.13218E-001	1.60015E+000	1.60800E-004	......
	370	95.841	-5.13169E-001	1.60015E+000	2.60800E-004	......
	372	96.358	-5.13119E-001	1.60015E+000	6.08000E-005	......
	374	96.874	-5.13218E-001	1.60015E+000	1.60800E-004	......
	376	97.391	-5.13268E-001	1.60015E+000	2.60800E-004	......
	378	97.908	-5.13218E-001	1.60015E+000	2.60800E-004	......
	380	98.424	-5.13169E-001	1.60015E+000	6.08000E-005	......
	382	98.941	-5.13168E-001	1.60015E+000	1.60800E-004	......
	384	99.458	-5.13218E-001	1.60015E+000	2.60800E-004	......
	386	99.974	-5.13218E-001	1.60015E+000	1.60800E-004	......
	388	100.491	-5.13169E-001	1.60015E+000	2.60800E-004	......
	390	101.008	-5.13169E-001	1.60015E+000	2.60800E-004	......
	392	101.524	-5.13119E-001	1.60015E+000	6.08000E-005	......
	394	102.041	-5.13068E-001	1.60015E+000	6.08000E-005	......
	396	102.558	-5.13169E-001	1.60015E+000	6.08000E-005	......
	398	103.074	-5.13169E-001	1.60015E+000	6.08000E-005	......
	400	103.591	-5.13169E-001	1.60015E+000	1.60800E-004	......
	402	104.108	-5.13119E-001	1.60015E+000	6.08000E-005	......
	404	104.624	-5.13219E-001	1.60015E+000	6.08000E-005	......
	406	105.141	-5.13218E-001	1.60015E+000	2.60800E-004	......
	408	105.658	-5.13169E-001	1.60015E+000	1.60800E-004	......
	410	106.174	-5.13119E-001	1.60015E+000	1.60800E-004	......
	412	106.691	-5.13218E-001	1.60015E+000	1.60800E-004	......
	414	107.208	-5.13169E-001	1.60015E+000	6.08000E-005	......
	416	107.724	-5.13169E-001	1.60015E+000	3.60800E-004	......
	418	108.241	-5.13119E-001	1.60015E+000	6.08000E-005	......
	420	108.758	-5.13168E-001	1.60015E+000	1.60800E-004	......
	422	109.274	-5.13169E-001	1.60015E+000	1.60800E-004	......
	424	109.791	-5.13119E-001	1.60015E+000	1.60800E-004	......
	426	110.308	-5.13169E-001	1.60015E+000	6.08000E-005	......
	428	110.824	-5.13169E-001	1.60015E+000	6.08000E-005	......
	430	111.341	-5.13169E-001	1.60015E+000	1.60800E-004	......
	432	111.858	-5.13068E-001	1.60015E+000	1.60800E-004	......
	434	112.374	-5.13169E-001	1.60015E+000	1.60800E-004	......
	436	112.891	-5.13169E-001	1.60015E+000	1.60800E-004	......
	438	113.408	-5.13169E-001	1.60015E+000	1.60800E-004	......
	440	113.924	-5.13169E-001	1.60015E+000	1.60800E-004	......
	442	114.441	-5.13219E-001	1.60015E+000	1.60800E-004	......
	444	114.958	-5.13168E-001	1.60015E+000	1.60800E-004	......
	446	115.474	-5.13169E-001	1.60015E+000	1.60800E-004	......
	448	115.991	-5.13119E-001	1.60015E+000	6.08000E-005	......
	450	116.508	-5.13169E-001	1.60015E+000	6.08000E-005	......
	452	117.024	-5.13268E-001	1.60015E+000	1.60800E-004	......
	454	117.541	-5.13119E-001	1.60015E+000	1.60800E-004	......
	456	118.057	-5.13169E-001	1.60015E+000	6.08000E-005	......
	458	118.574	-5.13169E-001	1.60015E+000	1.60800E-004	......
	460	119.091	-5.13119E-001	1.60015E+000	6.08000E-005	......
	462	119.607	-5.13119E-001	1.60015E+000	6.08000E-005	......
	464	120.124	-5.13219E-001	1.60015E+000	1.60800E-004	......
	466	120.641	-5.13218E-001	1.60015E+000	6.08000E-005	......
	468	121.157	-5.13119E-001	1.60015E+000	1.60800E-004	......
	470	121.674	-5.13068E-001	1.60015E+000	2.60800E-004	......
	472	122.191	-5.13169E-001	1.60015E+000	1.60800E-004	......
	474	122.707	-5.13068E-001	1.60015E+000	1.60800E-004	......
	476	123.224	-5.13169E-001	1.60015E+000	6.08000E-005	......
	478	123.741	-5.13169E-001	1.60015E+000	2.60800E-004	......
	480	124.257	-5.13068E-001	1.60015E+000	6.08000E-005	......
	482	124.774	-5.13119E-001	1.60015E+000	6.08000E-005	......
	484	125.291	-5.13169E-001	1.60015E+000	2.60800E-004	......
	486	125.807	-5.13119E-001	1.60015E+000	6.08000E-005	......
	488	126.324	-5.13068E-001	1.60015E+000	1.60800E-004	......
	490	126.841	-5.13119E-001	1.60015E+000	1.60800E-004	......
	492	127.357	-5.13119E-001	1.60015E+000	1.60800E-004	......
	494	127.874	-5.13119E-001	1.60015E+000	1.60800E-004	......
	496	128.391	-5.13169E-001	1.60015E+000	1.60800E-004	......
	498	128.907	-5.13068E-001	1.60015E+000	1.60800E-004	......
	500	129.424	-5.13169E-001	1.60015E+000	1.60800E-004	......
	502	129.941	-5.13119E-001	1.60015E+000	1.60800E-004	......
	504	130.457	-5.13218E-001	1.60015E+000	2.60800E-004	......
	506	130.974	-5.13068E-001	1.60015E+000	6.08000E-005	......
	508	131.491	-5.13169E-001	1.60015E+000	6.08000E-005	......
	510	132.007	-5.13169E-001	1.60015E+000	6.08000E-005	......
	512	132.524	-5.13119E-001	1.60015E+000	6.08000E-005	......
	514	133.041	-5.13169E-001	1.60015E+000	1.60800E-004	......
	516	133.557	-5.13119E-001	1.60015E+000	1.60800E-004	......
	518	134.074	-5.13119E-001	1.60015E+000	6.08000E-005	......
	520	134.591	-5.13119E-001	1.60015E+000	1.60800E-004	......
	522	135.107	-5.13169E-001	1.60015E+000	6.08000E-005	......
	524	135.624	-5.13119E-001	1.60015E+000	2.60800E-004	......
	526	136.141	-5.13068E-001	1.60015E+000	6.08000E-005	......
	528	136.657	-5.13169E-001	1.60015E+000	2.60800E-004	......
	530	137.174	-5.13068E-001	1.60015E+000	6.08000E-005	......
	532	137.691	-5.13119E-001	1.60015E+000	1.60800E-004	......
	534	138.207	-5.13068E-001	1.60015E+000	1.60800E-004	......
	536	138.724	-5.13068E-001	1.60015E+000	6.08000E-005	......
	538	139.241	-5.13068E-001	1.60015E+000	1.60800E-004	......
	540	139.757	-5.13119E-001	1.60015E+000	6.08000E-005	......
	542	140.274	-5.13119E-001	1.60015E+000	6.08000E-005	......
	544	140.791	-5.13119E-001	1.60015E+000	1.60800E-004	......
	546	141.307	-5.13169E-001	1.60015E+000	3.60800E-004	......
	548	141.824	-5.13068E-001	1.60015E+000	1.60800E-004	......
	550	142.341	-5.13119E-001	1.60015E+000	1.60800E-004	......
	552	142.857	-5.13068E-001	1.60015E+000	1.60800E-004	......
	554	143.374	-5.13119E-001	1.60015E+000	1.60800E-004	......
	556	143.891	-5.13119E-001	1.60015E+000	6.08000E-005	......
	558	144.407	-5.13169E-001	1.60015E+000	1.60800E-004	......
	560	144.924	-5.13169E-001	1.60015E+000	1.60800E-004	......
	562	145.441	-5.13068E-001	1.60015E+000	1.60800E-004	......
	564	145.957	-5.13119E-001	1.60015E+000	3.60800E-004	......
	566	146.474	-5.13119E-001	1.60015E+000	1.60800E-004	......
	568	146.991	-5.13018E-001	1.60015E+000	3.60800E-004	......
	570	147.507	-5.13068E-001	1.60015E+000	1.60800E-004	......
	572	148.024	-5.13119E-001	1.60015E+000	1.60800E-004	......
	574	148.541	-5.13119E-001	1.60015E+000	6.08000E-005	......
	576	149.057	-5.13119E-001	1.60015E+000	1.60800E-004	......
	578	149.574	-5.13068E-001	1.60015E+000	1.60800E-004	......
	580	150.091	-5.13119E-001	1.60015E+000	1.60800E-004	......
	582	150.607	-5.13119E-001	1.60015E+000	6.08000E-005	......
	584	151.124	-5.13169E-001	1.60015E+000	6.08000E-005	......
	586	151.641	-5.13068E-001	1.60015E+000	1.60800E-004	......
	588	152.157	-5.13119E-001	1.60015E+000	2.60800E-004	......
	590	152.674	-5.13119E-001	1.60015E+000	1.60800E-004	......
	592	153.191	-5.13119E-001	1.60015E+000	1.60800E-004	......
	594	153.707	-5.13018E-001	1.60015E+000	2.60800E-004	......
	596	154.224	-5.13018E-001	1.60015E+000	1.60800E-004	......
	598	154.741	-5.13068E-001	1.60015E+000	6.08000E-005	......
	600	155.257	-5.13119E-001	1.60015E+000	1.60800E-004	......
	602	155.774	-5.13018E-001	1.60015E+000	6.08000E-005	......
	604	156.291	-5.13068E-001	1.60015E+000	1.60800E-004	......
	606	156.807	-5.13068E-001	1.60015E+000	1.60800E-004	......
	608	157.324	-5.13068E-001	1.60015E+000	3.60800E-004	......
	610	157.841	-5.13068E-001	1.60015E+000	6.08000E-005	......
	612	158.357	-5.13018E-001	1.60015E+000	6.08000E-005	......
	614	158.874	-5.13068E-001	1.60015E+000	2.60800E-004	......
	616	159.391	-5.13119E-001	1.60015E+000	6.08000E-005	......
	618	159.907	-5.13068E-001	1.60015E+000	6.08000E-005	......
	620	160.424	-5.13068E-001	1.60015E+000	1.60800E-004	......
	622	160.941	-5.13169E-001	1.60015E+000	6.08000E-005	......
	624	161.457	-5.13018E-001	1.60015E+000	1.60800E-004	......
	626	161.974	-5.13169E-001	1.60015E+000	6.08000E-005	......
	628	162.491	-5.13068E-001	1.60015E+000	3.60800E-004	......
	630	163.007	-5.13068E-001	1.60015E+000	1.60800E-004	......
	632	163.524	-5.13018E-001	1.60015E+000	1.60800E-004	......
	634	164.041	-5.13068E-001	1.60015E+000	1.60800E-004	......
	636	164.557	-5.13068E-001	1.60015E+000	2.60800E-004	......
	638	165.074	-5.13068E-001	1.60015E+000	1.60800E-004	......
	640	165.59	-5.13068E-001	1.60015E+000	6.08000E-005	......
	642	166.107	-5.13018E-001	1.60015E+000	2.60800E-004	......
	644	166.624	-5.13119E-001	1.60015E+000	2.60800E-004	......
	646	167.14	-5.13068E-001	1.60015E+000	2.60800E-004	......
	648	167.657	-5.13068E-001	1.60015E+000	6.08000E-005	......
	650	168.174	-5.12968E-001	1.60015E+000	2.60800E-004	......
	652	168.69	-5.13068E-001	1.60015E+000	1.60800E-004	......
	654	169.207	-5.13119E-001	1.60015E+000	1.60800E-004	......
	656	169.724	-5.12968E-001	1.60015E+000	1.60800E-004	......
	658	170.24	-5.13119E-001	1.60015E+000	1.60800E-004	......
	660	170.757	-5.13119E-001	1.60015E+000	1.60800E-004	......
	662	171.274	-5.13068E-001	1.60015E+000	2.60800E-004	......
	664	171.79	-5.12918E-001	1.60015E+000	1.60800E-004	......
	666	172.307	-5.12968E-001	1.60015E+000	1.60800E-004	......
	668	172.824	-5.13068E-001	1.60015E+000	1.60800E-004	......
	670	173.34	-5.13119E-001	1.60015E+000	2.60800E-004	......
	672	173.857	-5.13068E-001	1.60015E+000	1.60800E-004	......
	674	174.374	-5.13119E-001	1.60015E+000	1.60800E-004	......
	676	174.89	-5.13018E-001	1.60015E+000	6.08000E-005	......
	678	175.407	-5.12968E-001	1.60015E+000	1.60800E-004	......
	680	175.924	-5.13119E-001	1.60015E+000	1.60800E-004	......
	682	176.44	-5.13068E-001	1.60015E+000	1.60800E-004	......
	684	176.957	-5.13018E-001	1.60015E+000	2.60800E-004	......
	686	177.474	-5.13119E-001	1.60015E+000	2.60800E-004	......
	688	177.99	-5.13068E-001	1.60015E+000	3.60800E-004	......
	690	178.507	-5.13068E-001	1.60015E+000	1.60800E-004	......
	692	179.024	-5.13018E-001	1.60015E+000	1.60800E-004	......
	694	179.54	-5.13068E-001	1.60015E+000	6.08000E-005	......
	696	180.057	-5.13018E-001	1.60015E+000	1.60800E-004	......
	698	180.574	-5.13119E-001	1.60015E+000	6.08000E-005	......
	700	181.09	-5.13018E-001	1.60015E+000	1.60800E-004	......
	702	181.607	-5.13068E-001	1.60015E+000	1.60800E-004	......
	704	182.124	-5.13018E-001	1.60015E+000	6.08000E-005	......
	706	182.64	-5.13068E-001	1.60015E+000	2.60800E-004	......
	708	183.157	-5.13018E-001	1.60015E+000	1.60800E-004	......
	710	183.674	-5.13068E-001	1.60015E+000	6.08000E-005	......
	712	184.19	-5.12968E-001	1.60015E+000	1.60800E-004	......
	714	184.707	-5.12968E-001	1.60015E+000	1.60800E-004	......
	716	185.224	-5.13068E-001	1.60015E+000	2.60800E-004	......
	718	185.74	-5.13018E-001	1.60015E+000	2.60800E-004	......
	720	186.257	-5.13018E-001	1.60015E+000	6.08000E-005	......
	722	186.774	-5.13068E-001	1.60015E+000	1.60800E-004	......
	724	187.29	-5.13068E-001	1.60015E+000	6.08000E-005	......
	726	187.807	-5.13018E-001	1.60015E+000	1.60800E-004	......
	728	188.324	-5.13068E-001	1.60015E+000	2.60800E-004	......
	730	188.84	-5.13018E-001	1.60015E+000	6.08000E-005	......
	732	189.357	-5.13119E-001	1.60015E+000	1.60800E-004	......
	734	189.874	-5.13068E-001	1.60015E+000	1.60800E-004	......
	736	190.39	-5.13018E-001	1.60015E+000	1.60800E-004	......
	738	190.907	-5.13068E-001	1.60015E+000	1.60800E-004	......
	740	191.424	-5.13068E-001	1.60015E+000	6.08000E-005	......
	742	191.94	-5.13018E-001	1.60015E+000	1.60800E-004	......
	744	192.457	-5.13068E-001	1.60015E+000	1.60800E-004	......
	746	192.974	-5.12968E-001	1.60015E+000	1.60800E-004	......
	748	193.49	-5.12968E-001	1.60015E+000	1.60800E-004	......
	750	194.007	-5.12968E-001	1.60015E+000	2.60800E-004	......
	752	194.524	-5.12968E-001	1.60015E+000	1.60800E-004	......
	754	195.04	-5.13018E-001	1.60015E+000	2.60800E-004	......
	756	195.557	-5.13018E-001	1.60015E+000	1.60800E-004	......
	758	196.074	-5.13068E-001	1.60015E+000	1.60800E-004	......
	760	196.59	-5.13018E-001	1.60015E+000	1.60800E-004	......
	762	197.107	-5.13068E-001	1.60015E+000	2.60800E-004	......
	764	197.624	-5.13068E-001	1.60015E+000	6.08000E-005	......
	766	198.14	-5.13068E-001	1.60015E+000	6.08000E-005	......
	768	198.657	-5.12968E-001	1.60015E+000	6.08000E-005	......
	770	199.174	-5.13068E-001	1.60015E+000	1.60800E-004	......
	772	199.69	-5.12968E-001	1.60015E+000	6.08000E-005	......
	774	200.207	-5.13068E-001	1.60015E+000	1.60800E-004	......
	776	200.724	-5.12968E-001	1.60015E+000	6.08000E-005	......
	778	201.24	-5.13068E-001	1.60015E+000	1.60800E-004	......
	780	201.757	-5.12918E-001	1.60015E+000	6.08000E-005	......
	782	202.274	-5.12968E-001	1.60015E+000	1.60800E-004	......
	784	202.79	-5.13068E-001	1.60015E+000	2.60800E-004	......
	786	203.307	-5.13068E-001	1.60015E+000	1.60800E-004	......
	788	203.824	-5.13018E-001	1.60015E+000	1.60800E-004	......
	790	204.34	-5.13018E-001	1.60015E+000	2.60800E-004	......
	792	204.857	-5.12968E-001	1.60015E+000	1.60800E-004	......
	794	205.374	-5.13068E-001	1.60015E+000	2.60800E-004	......
	796	205.89	-5.13018E-001	1.60015E+000	6.08000E-005	......
	798	206.407	-5.13018E-001	1.60015E+000	3.60800E-004	......
	800	206.924	-5.13018E-001	1.60015E+000	1.60800E-004	......
	802	207.44	-5.12918E-001	1.60015E+000	6.08000E-005	......
	804	207.957	-5.12968E-001	1.60015E+000	6.08000E-005	......
	806	208.474	-5.12968E-001	1.60015E+000	6.08000E-005	......
	808	208.99	-5.13018E-001	1.60015E+000	1.60800E-004	......
	810	209.507	-5.13068E-001	1.60015E+000	2.60800E-004	......
	812	210.024	-5.13018E-001	1.60015E+000	6.08000E-005	......
	814	210.54	-5.13068E-001	1.60015E+000	1.60800E-004	......
	816	211.057	-5.13018E-001	1.60015E+000	1.60800E-004	......
	818	211.574	-5.13018E-001	1.60015E+000	1.60800E-004	......
	820	212.09	-5.12968E-001	1.60015E+000	1.60800E-004	......
	822	212.607	-5.12968E-001	1.60015E+000	6.08000E-005	......
	824	213.123	-5.12918E-001	1.60015E+000	1.60800E-004	......
	826	213.64	-5.13018E-001	1.60015E+000	6.08000E-005	......
	828	214.157	-5.13018E-001	1.60015E+000	1.60800E-004	......
	830	214.673	-5.12968E-001	1.60015E+000	1.60800E-004	......
	832	215.19	-5.12968E-001	1.60015E+000	1.60800E-004	......
	834	215.707	-5.13068E-001	1.60015E+000	6.08000E-005	......
	836	216.223	-5.13018E-001	1.60015E+000	2.60800E-004	......
	838	216.74	-5.13068E-001	1.60015E+000	1.60800E-004	......
	840	217.257	-5.13068E-001	1.60015E+000	2.60800E-004	......
	842	217.773	-5.12918E-001	1.60015E+000	1.60800E-004	......
	844	218.29	-5.13018E-001	1.60015E+000	1.60800E-004	......
	846	218.807	-5.12968E-001	1.60015E+000	1.60800E-004	......
	848	219.323	-5.12968E-001	1.60015E+000	1.60800E-004	......
	850	219.84	-5.12968E-001	1.60015E+000	1.60800E-004	......
	852	220.357	-5.12968E-001	1.60015E+000	1.60800E-004	......
	854	220.873	-5.13018E-001	1.60015E+000	1.60800E-004	......
	856	221.39	-5.12918E-001	1.60015E+000	2.60800E-004	......
	858	221.907	-5.13068E-001	1.60015E+000	6.08000E-005	......
	860	222.423	-5.12968E-001	1.60015E+000	6.08000E-005	......
	862	222.94	-5.13018E-001	1.60015E+000	6.08000E-005	......
	864	223.457	-5.12968E-001	1.60015E+000	6.08000E-005	......
	866	223.973	-5.13068E-001	1.60015E+000	6.08000E-005	......
	868	224.49	-5.12968E-001	1.60015E+000	1.60800E-004	......
	870	225.007	-5.13018E-001	1.60015E+000	6.08000E-005	......
	872	225.523	-5.12968E-001	1.60015E+000	1.60800E-004	......
	874	226.04	-5.12918E-001	1.60015E+000	1.60800E-004	......
	876	226.557	-5.12968E-001	1.60015E+000	1.60800E-004	......
	878	227.073	-5.12918E-001	1.60015E+000	1.60800E-004	......
	880	227.59	-5.12918E-001	1.60015E+000	1.60800E-004	......
	882	228.107	-5.12968E-001	1.60015E+000	2.60800E-004	......
	884	228.623	-5.12918E-001	1.60015E+000	1.60800E-004	......
	886	229.14	-5.12918E-001	1.60015E+000	6.08000E-005	......
	888	229.657	-5.13018E-001	1.60015E+000	6.08000E-005	......
	890	230.173	-5.12968E-001	1.60015E+000	1.60800E-004	......
	892	230.69	-5.12968E-001	1.60015E+000	1.60800E-004	......
	894	231.207	-5.13018E-001	1.60015E+000	1.60800E-004	......
	896	231.723	-5.12968E-001	1.60015E+000	6.08000E-005	......
	898	232.24	-5.12968E-001	1.60015E+000	1.60800E-004	......
	900	232.757	-5.12968E-001	1.60015E+000	6.08000E-005	......
	902	233.273	-5.12918E-001	1.60015E+000	1.60800E-004	......
	904	233.79	-5.12918E-001	1.60015E+000	2.60800E-004	......
	906	234.307	-5.12868E-001	1.60015E+000	1.60800E-004	......
	908	234.823	-5.12968E-001	1.60015E+000	6.08000E-005	......
	910	235.34	-5.12968E-001	1.60015E+000	6.08000E-005	......
	912	235.857	-5.12918E-001	1.60015E+000	2.60800E-004	......
	914	236.373	-5.12968E-001	1.60015E+000	1.60800E-004	......
	916	236.89	-5.12918E-001	1.60015E+000	1.60800E-004	......
	918	237.407	-5.12968E-001	1.60015E+000	2.60800E-004	......
	920	237.923	-5.12918E-001	1.60015E+000	1.60800E-004	......
	922	238.44	-5.12968E-001	1.60015E+000	1.60800E-004	......
	924	238.957	-5.12918E-001	1.60015E+000	1.60800E-004	......
	926	239.473	-5.12968E-001	1.60015E+000	1.60800E-004	......
	928	239.99	-5.12918E-001	1.60015E+000	1.60800E-004	......
	930	240.507	-5.12968E-001	1.60015E+000	6.08000E-005	......
	932	241.023	-5.12868E-001	1.60015E+000	6.08000E-005	......
	934	241.54	-5.12918E-001	1.60015E+000	1.60800E-004	......
	936	242.057	-5.12918E-001	1.60015E+000	1.60800E-004	......
	938	242.573	-5.12918E-001	1.60015E+000	1.60800E-004	......
	940	243.09	-5.12968E-001	1.60015E+000	6.08000E-005	......
	942	243.607	-5.12868E-001	1.60015E+000	6.08000E-005	......
	944	244.123	-5.12918E-001	1.60015E+000	6.08000E-005	......
	946	244.64	-5.12918E-001	1.60015E+000	1.60800E-004	......
	948	245.157	-5.12918E-001	1.60015E+000	1.60800E-004	......
	950	245.673	-5.12918E-001	1.60015E+000	1.60800E-004	......
	952	246.19	-5.12819E-001	1.60015E+000	1.60800E-004	......
	954	246.707	-5.12968E-001	1.60015E+000	2.60800E-004	......
	956	247.223	-5.12968E-001	1.60015E+000	2.60800E-004	......
	958	247.74	-5.12818E-001	1.60015E+000	2.60800E-004	......
	960	248.257	-5.12968E-001	1.60015E+000	6.08000E-005	......
	962	248.773	-5.12918E-001	1.60015E+000	6.08000E-005	......
	964	249.29	-5.12968E-001	1.60015E+000	1.60800E-004	......
	966	249.807	-5.12918E-001	1.60015E+000	1.60800E-004	......
	968	250.323	-5.12918E-001	1.60015E+000	1.60800E-004	......
	970	250.84	-5.12968E-001	1.60015E+000	1.60800E-004	......
	972	251.357	-5.12918E-001	1.60015E+000	1.60800E-004	......
	974	251.873	-5.12918E-001	1.60015E+000	6.08000E-005	......
	976	252.39	-5.12918E-001	1.60015E+000	1.60800E-004	......
	978	252.907	-5.12918E-001	1.60015E+000	1.60800E-004	......
	980	253.423	-5.12968E-001	1.60015E+000	6.08000E-005	......
	982	253.94	-5.12968E-001	1.60015E+000	2.60800E-004	......
	984	254.457	-5.12868E-001	1.60015E+000	6.08000E-005	......
	986	254.973	-5.12968E-001	1.60015E+000	6.08000E-005	......
	988	255.49	-5.12868E-001	1.60015E+000	2.60800E-004	......
	990	256.007	-5.12819E-001	1.60015E+000	6.08000E-005	......
	992	256.523	-5.12868E-001	1.60015E+000	1.60800E-004	......
	994	257.04	-5.12868E-001	1.60015E+000	6.08000E-005	......
	996	257.557	-5.12868E-001	1.60015E+000	6.08000E-005	......
	998	258.073	-5.12818E-001	1.60015E+000	1.60800E-004	......
	1000	258.59	-5.12818E-001	1.60015E+000	2.60800E-004	......
	1002	259.107	-5.12918E-001	1.60015E+000	6.08000E-005	......
	1004	259.623	-5.12918E-001	1.60015E+000	2.60800E-004	......
	1006	260.14	-5.12868E-001	1.60015E+000	6.08000E-005	......
	1008	260.656	-5.12868E-001	1.60015E+000	6.08000E-005	......
	1010	261.173	-5.12868E-001	1.60015E+000	1.60800E-004	......
	1012	261.69	-5.12819E-001	1.60015E+000	6.08000E-005	......
	1014	262.206	-5.13018E-001	1.60015E+000	2.60800E-004	......
	1016	262.723	-5.12968E-001	1.60015E+000	1.60800E-004	......
	1018	263.24	-5.12868E-001	1.60015E+000	1.60800E-004	......
	1020	263.756	-5.12868E-001	1.60015E+000	6.08000E-005	......
	1022	264.273	-5.12918E-001	1.60015E+000	3.60800E-004	......
	1024	264.79	-5.12968E-001	1.60015E+000	1.60800E-004	......
	1026	265.306	-5.12868E-001	1.60015E+000	2.60800E-004	......
	1028	265.823	-5.12819E-001	1.60015E+000	2.60800E-004	......
	1030	266.34	-5.12768E-001	1.60015E+000	2.60800E-004	......
	1032	266.856	-5.12968E-001	1.60015E+000	6.08000E-005	......
	1034	267.373	-5.12918E-001	1.60015E+000	1.60800E-004	......
	1036	267.89	-5.12918E-001	1.60015E+000	6.08000E-005	......
	1038	268.406	-5.12818E-001	1.60015E+000	6.08000E-005	......
	1040	268.923	-5.12819E-001	1.60015E+000	1.60800E-004	......
	1042	269.44	-5.12819E-001	1.60015E+000	2.60800E-004	......
	1044	269.956	-5.12918E-001	1.60015E+000	1.60800E-004	......
	1046	270.473	-5.12868E-001	1.60015E+000	1.60800E-004	......
	1048	270.99	-5.12819E-001	1.60015E+000	6.08000E-005	......
	1050	271.506	-5.12868E-001	1.60015E+000	6.08000E-005	......
	1052	272.023	-5.12918E-001	1.60015E+000	2.60800E-004	......
	1054	272.54	-5.12868E-001	1.60015E+000	1.60800E-004	......
	1056	273.056	-5.12918E-001	1.60015E+000	6.08000E-005	......
	1058	273.573	-5.12818E-001	1.60015E+000	1.60800E-004	......
	1060	274.09	-5.12868E-001	1.60015E+000	6.08000E-005	......
	1062	274.606	-5.12818E-001	1.60015E+000	1.60800E-004	......
	1064	275.123	-5.12819E-001	1.60015E+000	1.60800E-004	......
	1066	275.64	-5.12918E-001	1.60015E+000	1.60800E-004	......
	1068	276.156	-5.12868E-001	1.60015E+000	6.08000E-005	......
	1070	276.673	-5.12868E-001	1.60015E+000	1.60800E-004	......
	1072	277.19	-5.12818E-001	1.60015E+000	3.60800E-004	......
	1074	277.706	-5.12868E-001	1.60015E+000	2.60800E-004	......
	1076	278.223	-5.12868E-001	1.60015E+000	1.60800E-004	......
	1078	278.74	-5.12818E-001	1.60015E+000	6.08000E-005	......
	1080	279.256	-5.12868E-001	1.60015E+000	1.60800E-004	......
	1082	279.773	-5.12819E-001	1.60015E+000	1.60800E-004	......
	1084	280.29	-5.12868E-001	1.60015E+000	6.08000E-005	......
	1086	280.806	-5.12819E-001	1.60015E+000	1.60800E-004	......
	1088	281.323	-5.12868E-001	1.60015E+000	1.60800E-004	......
	1090	281.84	-5.12818E-001	1.60015E+000	1.60800E-004	......
	1092	282.356	-5.12769E-001	1.60015E+000	3.60800E-004	......
	1094	282.873	-5.12868E-001	1.60015E+000	6.08000E-005	......
	1096	283.39	-5.12818E-001	1.60015E+000	6.08000E-005	......
	1098	283.906	-5.12918E-001	1.60015E+000	1.60800E-004	......
	1100	284.423	-5.12818E-001	1.60015E+000	6.08000E-005	......
	1102	284.94	-5.12769E-001	1.60015E+000	6.08000E-005	......
	1104	285.456	-5.12918E-001	1.60015E+000	1.60800E-004	......
	1106	285.973	-5.12868E-001	1.60015E+000	6.08000E-005	......
	1108	286.49	-5.12868E-001	1.60015E+000	1.60800E-004	......
	1110	287.006	-5.12918E-001	1.60015E+000	1.60800E-004	......
	1112	287.523	-5.12868E-001	1.60015E+000	2.60800E-004	......
	1114	288.04	-5.12769E-001	1.60015E+000	6.08000E-005	......
	1116	288.556	-5.12868E-001	1.60015E+000	1.60800E-004	......
	1118	289.073	-5.12818E-001	1.60015E+000	1.60800E-004	......
	1120	289.59	-5.12818E-001	1.60015E+000	6.08000E-005	......
	1122	290.106	-5.12818E-001	1.60015E+000	1.60800E-004	......
	1124	290.623	-5.12819E-001	1.60015E+000	6.08000E-005	......
	1126	291.14	-5.12868E-001	1.60015E+000	1.60800E-004	......
	1128	291.656	-5.12918E-001	1.60015E+000	6.08000E-005	......
	1130	292.173	-5.12769E-001	1.60015E+000	1.60800E-004	......
	1132	292.69	-5.12818E-001	1.60015E+000	1.60800E-004	......
	1134	293.206	-5.12769E-001	1.60015E+000	1.60800E-004	......
	1136	293.723	-5.12868E-001	1.60015E+000	1.60800E-004	......
	1138	294.24	-5.12868E-001	1.60015E+000	6.08000E-005	......
	1140	294.756	-5.12868E-001	1.60015E+000	1.60800E-004	......
	1142	295.273	-5.12769E-001	1.60015E+000	2.60800E-004	......
	1144	295.79	-5.12668E-001	1.60015E+000	6.08000E-005	......
	1146	296.306	-5.12868E-001	1.60015E+000	1.60800E-004	......
	1148	296.823	-5.12868E-001	1.60015E+000	6.08000E-005	......
	1150	297.34	-5.12769E-001	1.60015E+000	1.60800E-004	......
	1152	297.856	-5.12818E-001	1.60015E+000	1.60800E-004	......
	1154	298.373	-5.12868E-001	1.60015E+000	2.60800E-004	......
	1156	298.89	-5.12718E-001	1.60015E+000	1.60800E-004	......
	1158	299.406	-5.12769E-001	1.60015E+000	1.60800E-004	......
	1160	299.923	-5.12818E-001	1.60015E+000	1.60800E-004	......
EOC	QUANT	-0.512818	Open Circuit (V)
PSTATMODEL	IQUANT	35	Pstat Model
PSTATSECTION	LABEL	PStat0	Pstat Section
CTRLMODE	IQUANT	1	Control Mode
IESTAB	IQUANT	1	I/E Stability
CASPEED	IQUANT	2	Control Amp Speed
CONVENTION	IQUANT	1	Current Convention
ICHRANGE	IQUANT	2	Ich Range
ICHRANGEMODE	TOGGLE	T	Ich Auto Range
ICHOFFSETENABLE	TOGGLE	F	Ich Offset Enable
ICHOFFSET	QUANT	0	Ich Offset (V)
ICHFILTER	IQUANT	3	Ich Filter
VCHRANGE	IQUANT	3	Vch Range
VCHRANGEMODE	TOGGLE	T	Vch Auto Range
VCHOFFSETENABLE	TOGGLE	F	Vch Offset Enable
VCHOFFSET	QUANT	0	Vch Offset (V)
VCHFILTER	IQUANT	3	Vch Filter
ACHRANGE	IQUANT	0	Ach Range
IERANGELOWERLIMIT	IQUANT	3	I/E Range Lower Limit
IERANGEMODE	TOGGLE	T	I/E AutoRange
IERANGE	IQUANT	10	I/E Range
POSFEEDENABLE	TOGGLE	F	Positive Feedback IR Comp
POSFEEDRESISTANCE	QUANT	0	Positive Feedback Resistance (ohm)
FC350IDIVISOR	IQUANT	0	FC350 I Divisor
FC350VRANGE	IQUANT	0	FC350 V Range
FRAMEWORKVERSION	QUANT	4.3	Framework Version
CURVE	TABLE	2555
	Pt	T	Vf	Im	Vu	Sig	Ach	Over
	#	s	V vs. Ref.	A	V	V	V	bits
	0	4.99998	-5.32749E-001	-9.95321E-003	0.00000E+000	-5.32800E-001	3.60800E-004	......
	5	29.9999	-5.29168E-001	-8.75321E-003	0.00000E+000	-5.28650E-001	1.60800E-004	......
	10	54.9997	-5.24768E-001	-6.95071E-003	0.00000E+000	-5.24450E-001	3.60800E-004	......
	15	79.9996	-5.20768E-001	-4.74846E-003	0.00000E+000	-5.20300E-001	-3.92000E-005	......
	20	104.999	-5.16568E-001	-2.37096E-003	0.00000E+000	-5.16100E-001	4.60800E-004	......
	25	129.999	-5.12369E-001	-8.78529E-005	0.00000E+000	-5.11950E-001	6.08000E-005	......
	30	154.999	-5.08168E-001	2.17529E-003	0.00000E+000	-5.07750E-001	4.60800E-004	......
	35	179.999	-5.04169E-001	4.41754E-003	0.00000E+000	-5.03600E-001	1.60800E-004	......
	40	204.999	-5.00068E-001	6.67229E-003	0.00000E+000	-4.99400E-001	2.60800E-004	......
	45	229.999	-4.95768E-001	9.02429E-003	0.00000E+000	-4.95250E-001	6.08000E-005	......
	50	254.999	-4.91568E-001	1.13468E-002	0.00000E+000	-4.91050E-001	2.60800E-004	......
	55	279.999	-4.87468E-001	1.37018E-002	0.00000E+000	-4.86900E-001	1.60800E-004	......
	60	304.999	-4.83268E-001	1.61518E-002	0.00000E+000	-4.82700E-001	3.60800E-004	......
	65	329.998	-4.79168E-001	1.86843E-002	0.00000E+000	-4.78550E-001	1.60800E-004	......
	70	354.998	-4.74968E-001	2.12918E-002	0.00000E+000	-4.74350E-001	2.60800E-004	......
	75	379.998	-4.70768E-001	2.38943E-002	0.00000E+000	-4.70200E-001	6.08000E-005	......
	80	404.998	-4.66568E-001	2.64943E-002	0.00000E+000	-4.66000E-001	3.60800E-004	......
	85	429.998	-4.62468E-001	2.88718E-002	0.00000E+000	-4.61850E-001	6.08000E-005	......
	90	454.998	-4.58268E-001	3.08493E-002	0.00000E+000	-4.57650E-001	2.60800E-004	......
	95	479.998	-4.54168E-001	3.19868E-002	0.00000E+000	-4.53500E-001	1.60800E-004	......
	100	504.998	-4.49968E-001	3.26043E-002	0.00000E+000	-4.49300E-001	3.60800E-004	......
	105	529.997	-4.45768E-001	3.26668E-002	0.00000E+000	-4.45150E-001	1.60800E-004	......
	110	554.997	-4.41568E-001	3.22118E-002	0.00000E+000	-4.40950E-001	3.60800E-004	......
	115	579.997	-4.37468E-001	3.14893E-002	0.00000E+000	-4.36800E-001	2.60800E-004	......
	120	604.997	-4.33268E-001	3.05493E-002	0.00000E+000	-4.32600E-001	3.60800E-004	......
	125	629.997	-4.29068E-001	2.94168E-002	0.00000E+000	-4.28450E-001	6.08000E-005	......
	130	654.997	-4.24868E-001	2.81968E-002	0.00000E+000	-4.24250E-001	3.60800E-004	......
	135	679.997	-4.20668E-001	2.69218E-002	0.00000E+000	-4.20100E-001	6.08000E-005	......
	140	704.997	-4.16469E-001	2.55318E-002	0.00000E+000	-4.15900E-001	2.60800E-004	......
	145	729.996	-4.12268E-001	2.41593E-002	0.00000E+000	-4.11750E-001	6.08000E-005	......
	150	754.996	-4.08068E-001	2.27068E-002	0.00000E+000	-4.07550E-001	3.60800E-004	......
	155	779.996	-4.03968E-001	2.11418E-002	0.00000E+000	-4.03400E-001	6.08000E-005	......
	160	804.996	-3.99769E-001	1.93593E-002	0.00000E+000	-3.99200E-001	5.60800E-004	......
	165	829.996	-3.95568E-001	1.74518E-002	0.00000E+000	-3.95050E-001	1.60800E-004	......
	170	854.996	-3.91268E-001	1.54168E-002	0.00000E+000	-3.90850E-001	3.60800E-004	......
	175	879.996	-3.87268E-001	1.34618E-002	0.00000E+000	-3.86700E-001	6.08000E-005	......
	180	904.996	-3.83069E-001	1.15518E-002	0.00000E+000	-3.82500E-001	2.60800E-004	......
	185	929.995	-3.78868E-001	9.82929E-003	0.00000E+000	-3.78350E-001	6.08000E-005	......
	190	955	-3.74668E-001	8.31429E-003	0.00000E+000	-3.74150E-001	3.60800E-004	......
[...]
	1395	6979.97	6.31035E-001	7.33267E-006	0.00000E+000	6.32000E-001	6.08000E-005	......
	1400	7004.97	6.35235E-001	7.42767E-006	0.00000E+000	6.36200E-001	4.60800E-004	......
	1405	7029.97	6.39435E-001	7.51517E-006	0.00000E+000	6.40350E-001	1.60800E-004	......
	1410	7054.97	6.43735E-001	7.60767E-006	0.00000E+000	6.44550E-001	2.60800E-004	......
	1415	7079.97	6.47735E-001	7.69767E-006	0.00000E+000	6.48700E-001	1.60800E-004	......
	1420	7104.97	6.52035E-001	7.79767E-006	0.00000E+000	6.52900E-001	2.60800E-004	......
	1425	7129.97	6.56135E-001	7.89267E-006	0.00000E+000	6.57050E-001	6.08000E-005	......
	1430	7154.97	6.60335E-001	7.99017E-006	0.00000E+000	6.61250E-001	1.60800E-004	......
	1435	7179.96	6.64535E-001	8.11517E-006	0.00000E+000	6.65400E-001	6.08000E-005	......
	1440	7204.96	6.68735E-001	8.22517E-006	0.00000E+000	6.69600E-001	3.60800E-004	......
	1445	7229.96	6.72735E-001	8.32767E-006	0.00000E+000	6.73750E-001	6.08000E-005	......
	1450	7254.96	6.77035E-001	8.44017E-006	0.00000E+000	6.77950E-001	2.60800E-004	......
	1455	7279.96	6.81235E-001	8.57267E-006	0.00000E+000	6.82100E-001	6.08000E-005	......
	1460	7304.96	6.85435E-001	8.67517E-006	0.00000E+000	6.86300E-001	4.60800E-004	......
	1465	7329.96	6.89535E-001	8.77517E-006	0.00000E+000	6.90450E-001	6.08000E-005	......
	1470	7354.96	6.93635E-001	8.92517E-006	0.00000E+000	6.94650E-001	4.60800E-004	......
	1475	7379.96	6.97735E-001	9.03017E-006	0.00000E+000	6.98800E-001	6.08000E-005	......
	1480	7404.96	7.01935E-001	9.16017E-006	0.00000E+000	7.03000E-001	2.60800E-004	......
	1485	7429.96	7.06135E-001	9.24517E-006	0.00000E+000	7.07150E-001	2.60800E-004	......
	1490	7454.96	7.10335E-001	9.38767E-006	0.00000E+000	7.11350E-001	3.60800E-004	......
	1495	7479.96	7.14435E-001	9.53517E-006	0.00000E+000	7.15500E-001	1.60800E-004	......
	1500	7504.96	7.18735E-001	9.67017E-006	0.00000E+000	7.19700E-001	3.60800E-004	......
	1505	7529.96	7.22835E-001	9.80517E-006	0.00000E+000	7.23850E-001	-3.92000E-005	......
	1510	7554.96	7.27135E-001	9.96517E-006	0.00000E+000	7.28050E-001	2.60800E-004	......
	1515	7579.96	7.31135E-001	1.01127E-005	0.00000E+000	7.32200E-001	6.08000E-005	......
	1520	7604.96	7.35335E-001	1.02877E-005	0.00000E+000	7.36400E-001	2.60800E-004	......
	1525	7629.96	7.39435E-001	1.04302E-005	0.00000E+000	7.40550E-001	-3.92000E-005	......
	1530	7654.96	7.43635E-001	1.06127E-005	0.00000E+000	7.44750E-001	3.60800E-004	......
	1535	7679.96	7.47735E-001	1.07802E-005	0.00000E+000	7.48900E-001	6.08000E-005	......
	1540	7704.96	7.52035E-001	1.09927E-005	0.00000E+000	7.53100E-001	2.60800E-004	......
	1545	7729.96	7.56135E-001	1.12002E-005	0.00000E+000	7.57250E-001	1.60800E-004	......
	1550	7754.96	7.60435E-001	1.14327E-005	0.00000E+000	7.61450E-001	2.60800E-004	......
	1555	7779.96	7.64535E-001	1.16977E-005	0.00000E+000	7.65600E-001	1.60800E-004	......
	1560	7804.96	7.68835E-001	1.19777E-005	0.00000E+000	7.69800E-001	2.60800E-004	......
	1565	7829.96	7.72835E-001	1.22552E-005	0.00000E+000	7.73950E-001	6.08000E-005	......
	1570	7854.96	7.77135E-001	1.25752E-005	0.00000E+000	7.78150E-001	3.60800E-004	......
	1575	7879.96	7.81235E-001	1.29102E-005	0.00000E+000	7.82300E-001	1.60800E-004	......
	1580	7904.96	7.85435E-001	1.33027E-005	0.00000E+000	7.86500E-001	2.60800E-004	......
	1585	7929.96	7.89635E-001	1.37002E-005	0.00000E+000	7.90650E-001	1.60800E-004	......
	1590	7954.96	7.93835E-001	1.41627E-005	0.00000E+000	7.94850E-001	2.60800E-004	......
	1595	7979.96	7.97935E-001	1.46552E-005	0.00000E+000	7.99000E-001	1.60800E-004	......
	1600	8004.96	8.02035E-001	1.52052E-005	0.00000E+000	8.03200E-001	3.60800E-004	......
	1605	8029.96	8.06335E-001	1.57777E-005	0.00000E+000	8.07350E-001	6.08000E-005	......
	1610	8054.96	8.10435E-001	1.64177E-005	0.00000E+000	8.11550E-001	3.60800E-004	......
	1615	8079.96	8.14635E-001	1.70777E-005	0.00000E+000	8.15700E-001	6.08000E-005	......
	1620	8104.96	8.18935E-001	1.78027E-005	0.00000E+000	8.19900E-001	2.60800E-004	......
	1625	8129.96	8.23035E-001	1.85602E-005	0.00000E+000	8.24050E-001	-3.92000E-005	......
	1630	8154.96	8.27135E-001	1.93777E-005	0.00000E+000	8.28250E-001	2.60800E-004	......
	1635	8179.96	8.31335E-001	2.01852E-005	0.00000E+000	8.32400E-001	6.08000E-005	......
	1640	8204.96	8.35535E-001	2.09877E-005	0.00000E+000	8.36600E-001	4.60800E-004	......
	1645	8229.96	8.39635E-001	2.17277E-005	0.00000E+000	8.40750E-001	6.08000E-005	......
	1650	8254.96	8.43935E-001	2.23602E-005	0.00000E+000	8.44950E-001	2.60800E-004	......
	1655	8279.96	8.47935E-001	2.28777E-005	0.00000E+000	8.49100E-001	6.08000E-005	......
	1660	8304.96	8.52235E-001	2.33127E-005	0.00000E+000	8.53300E-001	2.60800E-004	......
	1665	8329.96	8.56335E-001	2.36452E-005	0.00000E+000	8.57450E-001	6.08000E-005	......
	1670	8354.96	8.60635E-001	2.39327E-005	0.00000E+000	8.61650E-001	3.60800E-004	......
	1675	8379.96	8.64735E-001	2.41727E-005	0.00000E+000	8.65800E-001	6.08000E-005	......
	1680	8404.96	8.69035E-001	2.44177E-005	0.00000E+000	8.70000E-001	2.60800E-004	......
	1685	8429.96	8.72935E-001	2.46102E-005	0.00000E+000	8.74150E-001	6.08000E-005	......
	1690	8454.96	8.77335E-001	2.48102E-005	0.00000E+000	8.78350E-001	2.60800E-004	......
	1695	8479.96	8.81435E-001	2.49877E-005	0.00000E+000	8.82500E-001	6.08000E-005	......
	1700	8504.96	8.85635E-001	2.52077E-005	0.00000E+000	8.86700E-001	4.60800E-004	......
	1705	8529.96	8.89735E-001	2.54627E-005	0.00000E+000	8.90850E-001	1.60800E-004	......
	1710	8554.96	8.94035E-001	2.57777E-005	0.00000E+000	8.95050E-001	3.60800E-004	......
	1715	8579.96	8.98135E-001	2.61677E-005	0.00000E+000	8.99200E-001	2.60800E-004	......
	1720	8604.96	9.02335E-001	2.67077E-005	0.00000E+000	9.03400E-001	3.60800E-004	......
	1725	8629.96	9.06535E-001	2.73577E-005	0.00000E+000	9.07550E-001	6.08000E-005	......
	1730	8654.96	9.10735E-001	2.81952E-005	0.00000E+000	9.11750E-001	3.60800E-004	......
	1735	8679.96	9.14835E-001	2.92227E-005	0.00000E+000	9.15900E-001	2.60800E-004	......
	1740	8704.96	9.19035E-001	3.05327E-005	0.00000E+000	9.20100E-001	2.60800E-004	......
	1745	8729.96	9.23135E-001	3.21377E-005	0.00000E+000	9.24250E-001	2.60800E-004	......
	1750	8754.96	9.27235E-001	3.41752E-005	0.00000E+000	9.28450E-001	3.60800E-004	......
	1755	8779.96	9.31535E-001	3.67027E-005	0.00000E+000	9.32600E-001	1.60800E-004	......
	1760	8804.96	9.35835E-001	3.98877E-005	0.00000E+000	9.36800E-001	4.60800E-004	......
	1765	8829.96	9.39835E-001	4.38352E-005	0.00000E+000	9.40950E-001	6.08000E-005	......
	1770	8854.96	9.44135E-001	4.88302E-005	0.00000E+000	9.45150E-001	3.60800E-004	......
	1775	8879.96	9.48135E-001	5.50077E-005	0.00000E+000	9.49300E-001	1.60800E-004	......
	1780	8904.96	9.52435E-001	6.26577E-005	0.00000E+000	9.53500E-001	3.60800E-004	......
	1785	8929.96	9.56535E-001	7.22471E-005	0.00000E+000	9.57650E-001	2.60800E-004	......
	1790	8954.96	9.60735E-001	8.33971E-005	0.00000E+000	9.61850E-001	2.60800E-004	......
	1795	8979.96	9.64935E-001	9.60721E-005	0.00000E+000	9.66000E-001	1.60800E-004	......
	1800	9004.96	9.69135E-001	1.10322E-004	0.00000E+000	9.70200E-001	2.60800E-004	......
	1805	9029.96	9.73335E-001	1.25172E-004	0.00000E+000	9.74350E-001	6.08000E-005	......
	1810	9054.96	9.77535E-001	1.40072E-004	0.00000E+000	9.78550E-001	4.60800E-004	......
	1815	9079.96	9.81735E-001	1.54222E-004	0.00000E+000	9.82700E-001	1.60800E-004	......
	1820	9104.96	9.85935E-001	1.68322E-004	0.00000E+000	9.86900E-001	2.60800E-004	......
	1825	9129.96	9.89835E-001	1.83697E-004	0.00000E+000	9.91050E-001	1.60800E-004	......
	1830	9154.96	9.94235E-001	2.03347E-004	0.00000E+000	9.95250E-001	3.60800E-004	......
	1835	9179.96	9.98235E-001	2.30347E-004	0.00000E+000	9.99400E-001	6.08000E-005	......
	1840	9204.96	1.00253E+000	2.70197E-004	0.00000E+000	1.00360E+000	3.60800E-004	......
	1845	9229.96	1.00653E+000	3.28147E-004	0.00000E+000	1.00775E+000	2.60800E-004	......
	1850	9254.96	1.01073E+000	4.08972E-004	0.00000E+000	1.01195E+000	4.60800E-004	......
	1855	9279.96	1.01484E+000	5.11222E-004	0.00000E+000	1.01610E+000	2.60800E-004	......
	1860	9304.96	1.01913E+000	6.33347E-004	0.00000E+000	1.02030E+000	3.60800E-004	......
	1865	9329.96	1.02323E+000	7.77544E-004	0.00000E+000	1.02445E+000	1.60800E-004	......
	1870	9354.95	1.02753E+000	9.29794E-004	0.00000E+000	1.02865E+000	3.60800E-004	......
	1875	9379.95	1.03163E+000	1.08529E-003	0.00000E+000	1.03280E+000	6.08000E-005	......
	1880	9404.95	1.03584E+000	1.24629E-003	0.00000E+000	1.03700E+000	2.60800E-004	......
	1885	9429.95	1.04004E+000	1.41054E-003	0.00000E+000	1.04115E+000	6.08000E-005	......
	1890	9454.95	1.04423E+000	1.58229E-003	0.00000E+000	1.04535E+000	2.60800E-004	......
	1895	9479.95	1.04833E+000	1.75279E-003	0.00000E+000	1.04950E+000	2.60800E-004	......
	1900	9505	1.05263E+000	1.92179E-003	0.00000E+000	1.05370E+000	3.60800E-004	......
	1905	9530	1.05664E+000	2.08204E-003	0.00000E+000	1.05785E+000	6.08000E-005	......
	1910	9555	1.06084E+000	2.24004E-003	0.00000E+000	1.06205E+000	3.60800E-004	......
	1915	9580	1.06493E+000	2.38904E-003	0.00000E+000	1.06620E+000	6.08000E-005	......
	1920	9605	1.06923E+000	2.53629E-003	0.00000E+000	1.07040E+000	3.60800E-004	......
	1925	9630	1.07333E+000	2.67379E-003	0.00000E+000	1.07455E+000	2.60800E-004	......
	1930	9655	1.07753E+000	2.81204E-003	0.00000E+000	1.07875E+000	2.60800E-004	......
	1935	9680	1.08163E+000	2.93904E-003	0.00000E+000	1.08290E+000	1.60800E-004	......
	1940	9705	1.08583E+000	3.06104E-003	0.00000E+000	1.08710E+000	3.60800E-004	......
	1945	9730	1.08993E+000	3.17004E-003	0.00000E+000	1.09125E+000	6.08000E-005	......
	1950	9755	1.09423E+000	3.27279E-003	0.00000E+000	1.09545E+000	4.60800E-004	......
	1955	9780	1.09834E+000	3.36354E-003	0.00000E+000	1.09960E+000	2.60800E-004	......
	1960	9805	1.10264E+000	3.45079E-003	0.00000E+000	1.10380E+000	3.60800E-004	......
	1965	9830	1.10663E+000	3.52654E-003	0.00000E+000	1.10795E+000	1.60800E-004	......
	1970	9855	1.11093E+000	3.60254E-003	0.00000E+000	1.11215E+000	2.60800E-004	......
	1975	9880	1.11493E+000	3.67004E-003	0.00000E+000	1.11630E+000	2.60800E-004	......
	1980	9905	1.11923E+000	3.73804E-003	0.00000E+000	1.12050E+000	2.60800E-004	......
	1985	9930	1.12323E+000	3.79904E-003	0.00000E+000	1.12465E+000	1.60800E-004	......
	1990	9955	1.12764E+000	3.86104E-003	0.00000E+000	1.12885E+000	4.60800E-004	......
	1995	9980	1.13173E+000	3.91454E-003	0.00000E+000	1.13300E+000	1.60800E-004	......
	2000	10005	1.13593E+000	3.96929E-003	0.00000E+000	1.13720E+000	4.60800E-004	......
	2005	10030	1.14013E+000	4.01604E-003	0.00000E+000	1.14135E+000	6.08000E-005	......
	2010	10055	1.14424E+000	4.06454E-003	0.00000E+000	1.14555E+000	3.60800E-004	......
	2015	10080	1.14833E+000	4.10704E-003	0.00000E+000	1.14970E+000	6.08000E-005	......
	2020	10105	1.15263E+000	4.15179E-003	0.00000E+000	1.15390E+000	4.60800E-004	......
	2025	10130	1.15673E+000	4.19154E-003	0.00000E+000	1.15805E+000	2.60800E-004	......
	2030	10155	1.16103E+000	4.23279E-003	0.00000E+000	1.16225E+000	4.60800E-004	......
	2035	10180	1.16504E+000	4.26754E-003	0.00000E+000	1.16640E+000	1.60800E-004	......
	2040	10205	1.16923E+000	4.30229E-003	0.00000E+000	1.17060E+000	4.60800E-004	......
	2045	10230	1.17333E+000	4.33154E-003	0.00000E+000	1.17475E+000	1.60800E-004	......
	2050	10255	1.17763E+000	4.36054E-003	0.00000E+000	1.17895E+000	2.60800E-004	......
	2055	10280	1.18173E+000	4.38404E-003	0.00000E+000	1.18310E+000	1.60800E-004	......
	2060	10305	1.18594E+000	4.40854E-003	0.00000E+000	1.18730E+000	3.60800E-004	......
	2065	10330	1.19003E+000	4.42854E-003	0.00000E+000	1.19145E+000	1.60800E-004	......
	2070	10354.9	1.19433E+000	4.45029E-003	0.00000E+000	1.19565E+000	3.60800E-004	......
	2075	10379.9	1.19853E+000	4.46804E-003	0.00000E+000	1.19980E+000	6.08000E-005	......
	2080	10404.9	1.20273E+000	4.48704E-003	0.00000E+000	1.20400E+000	3.60800E-004	......
	2085	10429.9	1.20674E+000	4.50304E-003	0.00000E+000	1.20815E+000	6.08000E-005	......
	2090	10454.9	1.21104E+000	4.52079E-003	0.00000E+000	1.21235E+000	4.60800E-004	......
	2095	10479.9	1.21513E+000	4.53504E-003	0.00000E+000	1.21650E+000	1.60800E-004	......
	2100	10504.9	1.21933E+000	4.55079E-003	0.00000E+000	1.22070E+000	4.60800E-004	......
	2105	10529.9	1.22363E+000	4.56729E-003	0.00000E+000	1.22485E+000	1.60800E-004	......
	2110	10554.9	1.22764E+000	4.58179E-003	0.00000E+000	1.22905E+000	3.60800E-004	......
	2115	10579.9	1.23194E+000	4.59554E-003	0.00000E+000	1.23320E+000	6.08000E-005	......
	2120	10604.9	1.23603E+000	4.61204E-003	0.00000E+000	1.23740E+000	3.60800E-004	......
	2125	10629.9	1.24023E+000	4.62729E-003	0.00000E+000	1.24155E+000	1.60800E-004	......
	2130	10654.9	1.24453E+000	4.64429E-003	0.00000E+000	1.24575E+000	4.60800E-004	......
	2135	10679.9	1.24863E+000	4.65929E-003	0.00000E+000	1.24990E+000	1.60800E-004	......
	2140	10704.9	1.25283E+000	4.67579E-003	0.00000E+000	1.25410E+000	2.60800E-004	......
	2145	10729.9	1.25694E+000	4.69179E-003	0.00000E+000	1.25825E+000	-3.92000E-005	......
	2150	10754.9	1.26113E+000	4.70929E-003	0.00000E+000	1.26245E+000	5.60800E-004	......
	2155	10779.9	1.26523E+000	4.72379E-003	0.00000E+000	1.26660E+000	6.08000E-005	......
	2160	10804.9	1.26953E+000	4.74379E-003	0.00000E+000	1.27080E+000	2.60800E-004	......
	2165	10829.9	1.27363E+000	4.75954E-003	0.00000E+000	1.27495E+000	6.08000E-005	......
	2170	10854.9	1.27793E+000	4.77854E-003	0.00000E+000	1.27915E+000	4.60800E-004	......
	2175	10879.9	1.28203E+000	4.79604E-003	0.00000E+000	1.28330E+000	2.60800E-004	......
	2180	10904.9	1.28623E+000	4.81529E-003	0.00000E+000	1.28750E+000	2.60800E-004	......
	2185	10929.9	1.29033E+000	4.83404E-003	0.00000E+000	1.29165E+000	6.08000E-005	......
	2190	10954.9	1.29453E+000	4.85354E-003	0.00000E+000	1.29585E+000	4.60800E-004	......
	2195	10979.9	1.29874E+000	4.87254E-003	0.00000E+000	1.30000E+000	6.08000E-005	......
	2200	11004.9	1.30283E+000	4.89404E-003	0.00000E+000	1.30420E+000	3.60800E-004	......
	2205	11029.9	1.30703E+000	4.91279E-003	0.00000E+000	1.30835E+000	6.08000E-005	......
	2210	11054.9	1.31133E+000	4.93654E-003	0.00000E+000	1.31255E+000	2.60800E-004	......
	2215	11079.9	1.31553E+000	4.96029E-003	0.00000E+000	1.31670E+000	6.08000E-005	......
	2220	11104.9	1.31954E+000	4.98354E-003	0.00000E+000	1.32090E+000	3.60800E-004	......
	2225	11129.9	1.32373E+000	5.00729E-003	0.00000E+000	1.32505E+000	1.60800E-004	......
	2230	11154.9	1.32793E+000	5.03529E-003	0.00000E+000	1.32925E+000	4.60800E-004	......
	2235	11179.9	1.33203E+000	5.06079E-003	0.00000E+000	1.33340E+000	6.08000E-005	......
	2240	11204.9	1.33633E+000	5.08929E-003	0.00000E+000	1.33760E+000	3.60800E-004	......
	2245	11229.9	1.34043E+000	5.12004E-003	0.00000E+000	1.34175E+000	2.60800E-004	......
	2250	11254.9	1.34453E+000	5.15354E-003	0.00000E+000	1.34595E+000	3.60800E-004	......
	2255	11279.9	1.34873E+000	5.18604E-003	0.00000E+000	1.35010E+000	6.08000E-005	......
	2260	11304.9	1.35293E+000	5.22304E-003	0.00000E+000	1.35430E+000	3.60800E-004	......
	2265	11329.9	1.35713E+000	5.26204E-003	0.00000E+000	1.35845E+000	6.08000E-005	......
	2270	11354.9	1.36133E+000	5.30329E-003	0.00000E+000	1.36265E+000	2.60800E-004	......
	2275	11379.9	1.36533E+000	5.34554E-003	0.00000E+000	1.36680E+000	1.60800E-004	......
	2280	11404.9	1.36974E+000	5.39204E-003	0.00000E+000	1.37100E+000	2.60800E-004	......
	2285	11429.9	1.37383E+000	5.44154E-003	0.00000E+000	1.37515E+000	2.60800E-004	......
	2290	11454.9	1.37803E+000	5.49454E-003	0.00000E+000	1.37935E+000	4.60800E-004	......
	2295	11479.9	1.38213E+000	5.55204E-003	0.00000E+000	1.38350E+000	6.08000E-005	......
	2300	11504.9	1.38634E+000	5.61054E-003	0.00000E+000	1.38770E+000	4.60800E-004	......
	2305	11529.9	1.39053E+000	5.67729E-003	0.00000E+000	1.39185E+000	6.08000E-005	......
	2310	11554.9	1.39473E+000	5.74629E-003	0.00000E+000	1.39605E+000	2.60800E-004	......
	2315	11579.9	1.39883E+000	5.81904E-003	0.00000E+000	1.40020E+000	1.60800E-004	......
	2320	11604.9	1.40313E+000	5.89954E-003	0.00000E+000	1.40440E+000	3.60800E-004	......
	2325	11629.9	1.40714E+000	5.98229E-003	0.00000E+000	1.40855E+000	1.60800E-004	......
	2330	11654.9	1.41144E+000	6.07229E-003	0.00000E+000	1.41275E+000	2.60800E-004	......
	2335	11679.9	1.41553E+000	6.16654E-003	0.00000E+000	1.41690E+000	1.60800E-004	......
	2340	11704.9	1.41973E+000	6.27254E-003	0.00000E+000	1.42110E+000	4.60800E-004	......
	2345	11729.9	1.42374E+000	6.38204E-003	0.00000E+000	1.42525E+000	2.60800E-004	......
	2350	11754.9	1.42813E+000	6.49979E-003	0.00000E+000	1.42945E+000	4.60800E-004	......
	2355	11779.9	1.43203E+000	6.62404E-003	0.00000E+000	1.43360E+000	6.08000E-005	......
	2360	11804.9	1.43654E+000	6.78679E-003	0.00000E+000	1.43780E+000	4.60800E-004	......
	2365	11829.9	1.44063E+000	6.92929E-003	0.00000E+000	1.44195E+000	1.60800E-004	......
	2370	11854.9	1.44483E+000	7.08679E-003	0.00000E+000	1.44615E+000	4.60800E-004	......
	2375	11879.9	1.44893E+000	7.25179E-003	0.00000E+000	1.45030E+000	6.08000E-005	......
	2380	11904.9	1.45323E+000	7.43429E-003	0.00000E+000	1.45450E+000	3.60800E-004	......
	2385	11929.9	1.45733E+000	7.62679E-003	0.00000E+000	1.45865E+000	6.08000E-005	......
	2390	11954.9	1.46163E+000	7.83429E-003	0.00000E+000	1.46285E+000	2.60800E-004	......
	2395	11979.9	1.46573E+000	8.05429E-003	0.00000E+000	1.46700E+000	6.08000E-005	......
	2400	12004.9	1.46983E+000	8.29929E-003	0.00000E+000	1.47120E+000	3.60800E-004	......
	2405	12029.9	1.47403E+000	8.55679E-003	0.00000E+000	1.47535E+000	6.08000E-005	......
	2410	12054.9	1.47824E+000	8.84429E-003	0.00000E+000	1.47955E+000	1.60800E-004	......
	2415	12079.9	1.48243E+000	9.14679E-003	0.00000E+000	1.48370E+000	1.60800E-004	......
	2420	12104.9	1.48673E+000	9.48179E-003	0.00000E+000	1.48790E+000	2.60800E-004	......
	2425	12129.9	1.49073E+000	9.84429E-003	0.00000E+000	1.49205E+000	6.08000E-005	......
	2430	12154.9	1.49493E+000	1.02443E-002	0.00000E+000	1.49625E+000	4.60800E-004	......
	2435	12179.9	1.49893E+000	1.06718E-002	0.00000E+000	1.50040E+000	-3.92000E-005	......
	2440	12204.9	1.50333E+000	1.11468E-002	0.00000E+000	1.50460E+000	3.60800E-004	......
	2445	12229.9	1.50733E+000	1.16568E-002	0.00000E+000	1.50875E+000	1.60800E-004	......
	2450	12254.9	1.51163E+000	1.22268E-002	0.00000E+000	1.51295E+000	2.60800E-004	......
	2455	12279.9	1.51573E+000	1.28418E-002	0.00000E+000	1.51710E+000	6.08000E-005	......
	2460	12304.9	1.51994E+000	1.35168E-002	0.00000E+000	1.52130E+000	2.60800E-004	......
	2465	12329.9	1.52403E+000	1.42543E-002	0.00000E+000	1.52545E+000	6.08000E-005	......
	2470	12354.9	1.52833E+000	1.50743E-002	0.00000E+000	1.52965E+000	3.60800E-004	......
	2475	12379.9	1.53233E+000	1.59643E-002	0.00000E+000	1.53380E+000	1.60800E-004	......
	2480	12404.9	1.53663E+000	1.69468E-002	0.00000E+000	1.53800E+000	3.60800E-004	......
	2485	12429.9	1.54063E+000	1.80143E-002	0.00000E+000	1.54215E+000	2.60800E-004	......
	2490	12454.9	1.54504E+000	1.91943E-002	0.00000E+000	1.54635E+000	2.60800E-004	......
	2495	12479.9	1.54903E+000	2.04843E-002	0.00000E+000	1.55050E+000	1.60800E-004	......
	2500	12504.9	1.55333E+000	2.19318E-002	0.00000E+000	1.55470E+000	2.60800E-004	......
	2505	12529.9	1.55734E+000	2.35243E-002	0.00000E+000	1.55885E+000	6.08000E-005	......
	2510	12554.9	1.56164E+000	2.53318E-002	0.00000E+000	1.56305E+000	2.60800E-004	......
	2515	12579.9	1.56573E+000	2.73793E-002	0.00000E+000	1.56720E+000	-3.92000E-005	......
	2520	12604.9	1.56993E+000	2.96418E-002	0.00000E+000	1.57140E+000	2.60800E-004	......
	2525	12629.9	1.57403E+000	3.20918E-002	0.00000E+000	1.57555E+000	6.08000E-005	......
	2530	12654.9	1.57833E+000	3.48443E-002	0.00000E+000	1.57975E+000	3.60800E-004	......
	2535	12679.9	1.58233E+000	3.78418E-002	0.00000E+000	1.58390E+000	3.60800E-004	......
	2540	12704.9	1.58663E+000	4.11693E-002	0.00000E+000	1.58810E+000	4.60800E-004	......
	2545	12729.9	1.59083E+000	4.47168E-002	0.00000E+000	1.59225E+000	6.08000E-005	......
	2550	12754.9	1.59493E+000	4.86793E-002	0.00000E+000	1.59645E+000	4.60800E-004	......
	2554	12774.9	1.59824E+000	5.19893E-002	0.00000E+000	1.59975E+000	3.60800E-004	......